"","workerid","correct_response","end_rest","follows_block_num","follows_internal_epoch_num","gameA_isSR","gameA_name","game_type","interactions","practice","response","rest_trial_num","rt","sequence","time_elapsed","timed_out","trial_index","trial_type","type_desc","error","subj_id","is_correct_numeric","overall_type_count","epoch_num","block_num","na_trial","rest_chunk","num_rest_in_chunk"
"1","4",NA,"",NA,NA,FALSE,"digit_span","digit_span","","False","[2, 7, 3, 3]",NA,3545.59999999998,"[2, 7, 7, 3]","280514",FALSE,78,"ds_main_response","",NA,4,1,1,1,"1",0,NA,0
"2","4",NA,"",NA,NA,FALSE,"digit_span","digit_span","","False","[0, 4, 8, 6]",NA,2523.70000000001,"[0, 4, 8, 6]","284980",FALSE,87,"ds_main_response","",NA,4,1,2,1,"1",0,NA,0
"3","4",NA,"",NA,NA,FALSE,"digit_span","digit_span","","False","[]",NA,NA,"[3, 3, 4, 0]","291115",TRUE,96,"ds_main_response","",NA,4,0,3,1,"1",0,NA,0
"4","4",NA,"",NA,NA,FALSE,"digit_span","digit_span","","False","[2, 5, 8, 9]",NA,3293.10000000003,"[2, 5, 8, 9]","296349",FALSE,105,"ds_main_response","",NA,4,1,4,1,"1",0,NA,0
"5","4",NA,"",NA,NA,FALSE,"digit_span","digit_span","","False","[4, 5, 5, 2]",NA,2053,"[4, 5, 5, 2]","300334",FALSE,114,"ds_main_response","",NA,4,1,5,1,"1",0,NA,0
"6","4",NA,"",NA,NA,FALSE,"digit_span","digit_span","","False","[8, 3, 2, 3]",NA,2618.89999999997,"[8, 3, 2, 3]","304888",FALSE,123,"ds_main_response","",NA,4,1,6,1,"1",0,NA,0
"7","4",NA,"",NA,NA,FALSE,"digit_span","digit_span","","False","[3, 3, 2, 5]",NA,1880.20000000001,"[3, 3, 2, 5]","308714",FALSE,132,"ds_main_response","",NA,4,1,7,1,"1",0,NA,0
"8","4",NA,"",NA,NA,FALSE,"digit_span","digit_span","","False","[0, 0, 9, 8]",NA,1649.20000000001,"[0, 0, 9, 8]","312303",FALSE,141,"ds_main_response","",NA,4,1,8,1,"1",0,NA,0
"9","4",NA,"",NA,NA,FALSE,"digit_span","digit_span","","False","[1, 9, 5, 5]",NA,2676,"[1, 9, 5, 5]","316917",FALSE,150,"ds_main_response","",NA,4,1,9,1,"1",0,NA,0
"10","4",NA,"",NA,NA,FALSE,"digit_span","digit_span","","False","[0, 7, 8, 8]",NA,2357,"[0, 7, 8, 8]","321206",FALSE,159,"ds_main_response","",NA,4,1,10,1,"1",0,NA,0
"11","4","2","False",NA,"1",FALSE,"digit_span","rest_task","","","","0",NA,"","325752",TRUE,161,"rt_main_trials","epoch_same_same",NA,4,0,1,NA,"1",0,1,14
"12","4","2","False",NA,"1",FALSE,"digit_span","rest_task","","","2","1",1135,"","327291",FALSE,162,"rt_main_trials","epoch_same_same",NA,4,1,2,NA,"1",0,1,14
"13","4","2","False",NA,"1",FALSE,"digit_span","rest_task","","","2","2",580,"","328844",FALSE,163,"rt_main_trials","epoch_same_same",NA,4,1,3,NA,"1",0,1,14
"14","4","2","False",NA,"1",FALSE,"digit_span","rest_task","","","2","3",660,"","330389",FALSE,164,"rt_main_trials","epoch_same_same",NA,4,1,4,NA,"1",0,1,14
"15","4","1","False",NA,"1",FALSE,"digit_span","rest_task","","","1","4",736,"","331929",FALSE,165,"rt_main_trials","epoch_same_same",NA,4,1,5,NA,"1",0,1,14
"16","4","2","False",NA,"1",FALSE,"digit_span","rest_task","","","2","5",626,"","333470",FALSE,166,"rt_main_trials","epoch_same_same",NA,4,1,6,NA,"1",0,1,14
"17","4","1","False",NA,"1",FALSE,"digit_span","rest_task","","","1","6",797,"","335021",FALSE,167,"rt_main_trials","epoch_same_same",NA,4,1,7,NA,"1",0,1,14
"18","4","1","False",NA,"1",FALSE,"digit_span","rest_task","","","1","7",805,"","336566",FALSE,168,"rt_main_trials","epoch_same_same",NA,4,1,8,NA,"1",0,1,14
"19","4","2","False",NA,"1",FALSE,"digit_span","rest_task","","","2","8",549,"","338114",FALSE,169,"rt_main_trials","epoch_same_same",NA,4,1,9,NA,"1",0,1,14
"20","4","1","False",NA,"1",FALSE,"digit_span","rest_task","","","1","9",561,"","339660",FALSE,170,"rt_main_trials","epoch_same_same",NA,4,1,10,NA,"1",0,1,14
"21","4","2","False",NA,"1",FALSE,"digit_span","rest_task","","","2","10",799,"","341211",FALSE,171,"rt_main_trials","epoch_same_same",NA,4,1,11,NA,"1",0,1,14
"22","4","1","False",NA,"1",FALSE,"digit_span","rest_task","","","1","11",655,"","342752",FALSE,172,"rt_main_trials","epoch_same_same",NA,4,1,12,NA,"1",0,1,14
"23","4","2","False",NA,"1",FALSE,"digit_span","rest_task","","","2","12",695,"","344286",FALSE,173,"rt_main_trials","epoch_same_same",NA,4,1,13,NA,"1",0,1,14
"24","4","1","True",NA,"1",FALSE,"digit_span","rest_task","","","","13",NA,"","344567",TRUE,174,"rt_main_trials","epoch_same_same",NA,4,0,14,NA,"1",0,1,14
"25","4",NA,"",NA,NA,FALSE,"digit_span","digit_span","","False","[6, 2, 8, 6]",NA,3222.5,"[6, 2, 8, 6]","351236",FALSE,184,"ds_main_response","",NA,4,1,11,2,"1",0,NA,0
"26","4",NA,"",NA,NA,FALSE,"digit_span","digit_span","","False","[4, 1, 2, 9]",NA,2631.40000000002,"[4, 1, 2, 9]","355804",FALSE,193,"ds_main_response","",NA,4,1,12,2,"1",0,NA,0
"27","4",NA,"",NA,NA,FALSE,"digit_span","digit_span","","False","[]",NA,NA,"[3, 3, 4, 8]","361942",TRUE,202,"ds_main_response","",NA,4,0,13,2,"1",0,NA,0
"28","4",NA,"",NA,NA,FALSE,"digit_span","digit_span","","False","[2, 6, 7, 7]",NA,2798.30000000005,"[2, 6, 7, 7]","366684",FALSE,211,"ds_main_response","",NA,4,1,14,2,"1",0,NA,0
"29","4",NA,"",NA,NA,FALSE,"digit_span","digit_span","","False","[6, 8, 9, 7]",NA,2706.59999999998,"[6, 8, 9, 7]","371330",FALSE,220,"ds_main_response","",NA,4,1,15,2,"1",0,NA,0
"30","4",NA,"",NA,NA,FALSE,"digit_span","digit_span","","False","[0, 6, 5, 8]",NA,2613,"[0, 6, 5, 8]","375870",FALSE,229,"ds_main_response","",NA,4,1,16,2,"1",0,NA,0
"31","4",NA,"",NA,NA,FALSE,"digit_span","digit_span","","False","[3, 4, 6, 7]",NA,2891.79999999993,"[3, 4, 6, 7]","380704",FALSE,238,"ds_main_response","",NA,4,1,17,2,"1",0,NA,0
"32","4",NA,"",NA,NA,FALSE,"digit_span","digit_span","","False","[4, 9, 1, 9]",NA,2971.90000000002,"[4, 9, 1, 9]","385624",FALSE,247,"ds_main_response","",NA,4,1,18,2,"1",0,NA,0
"33","4",NA,"",NA,NA,FALSE,"digit_span","digit_span","","False","[9, 7, 5, 9]",NA,2466.40000000002,"[9, 7, 5, 9]","390025",FALSE,256,"ds_main_response","",NA,4,1,19,2,"1",0,NA,0
"34","4",NA,"",NA,NA,FALSE,"digit_span","digit_span","","False","[2, 6, 0, 9]",NA,3648.5,"[2, 6, 0, 9]","395620",FALSE,265,"ds_main_response","",NA,4,1,20,2,"1",0,NA,0
"35","4","2","False",NA,"2",FALSE,"digit_span","rest_task","","","2","0",1031,"","400176",FALSE,267,"rt_main_trials","epoch_same_same",NA,4,1,15,NA,"1",0,2,9
"36","4","2","False",NA,"2",FALSE,"digit_span","rest_task","","","2","1",937,"","401717",FALSE,268,"rt_main_trials","epoch_same_same",NA,4,1,16,NA,"1",0,2,9
"37","4","2","False",NA,"2",FALSE,"digit_span","rest_task","","","2","2",798,"","403258",FALSE,269,"rt_main_trials","epoch_same_same",NA,4,1,17,NA,"1",0,2,9
"38","4","1","False",NA,"2",FALSE,"digit_span","rest_task","","","1","3",507,"","404797",FALSE,270,"rt_main_trials","epoch_same_same",NA,4,1,18,NA,"1",0,2,9
"39","4","1","False",NA,"2",FALSE,"digit_span","rest_task","","","1","4",582,"","406335",FALSE,271,"rt_main_trials","epoch_same_same",NA,4,1,19,NA,"1",0,2,9
"40","4","2","False",NA,"2",FALSE,"digit_span","rest_task","","","2","5",646,"","407872",FALSE,272,"rt_main_trials","epoch_same_same",NA,4,1,20,NA,"1",0,2,9
"41","4","1","False",NA,"2",FALSE,"digit_span","rest_task","","","1","6",799,"","409407",FALSE,273,"rt_main_trials","epoch_same_same",NA,4,1,21,NA,"1",0,2,9
"42","4","1","False",NA,"2",FALSE,"digit_span","rest_task","","","1","7",914,"","410942",FALSE,274,"rt_main_trials","epoch_same_same",NA,4,1,22,NA,"1",0,2,9
"43","4","1","True",NA,"2",FALSE,"digit_span","rest_task","","","","8",NA,"","411458",TRUE,275,"rt_main_trials","epoch_same_same",NA,4,0,23,NA,"1",0,2,9
"44","4",NA,"",NA,NA,FALSE,"digit_span","digit_span","","False","[6, 6, 1, 1]",NA,2669.19999999995,"[6, 6, 1, 1]","417569",FALSE,285,"ds_main_response","",NA,4,1,21,3,"1",0,NA,0
"45","4",NA,"",NA,NA,FALSE,"digit_span","digit_span","","False","[4, 1, 9, 4]",NA,3199.09999999998,"[4, 1, 9, 4]","422709",FALSE,294,"ds_main_response","",NA,4,1,22,3,"1",0,NA,0
"46","4",NA,"",NA,NA,FALSE,"digit_span","digit_span","","False","[8, 4, 0, 7]",NA,2390.30000000005,"[8, 4, 0, 7]","427031",FALSE,303,"ds_main_response","",NA,4,1,23,3,"1",0,NA,0
"47","4",NA,"",NA,NA,FALSE,"digit_span","digit_span","","False","[0, 3, 4, 4]",NA,2525.19999999995,"[0, 3, 4, 4]","431493",FALSE,312,"ds_main_response","",NA,4,1,24,3,"1",0,NA,0
"48","4",NA,"",NA,NA,FALSE,"digit_span","digit_span","","False","[3, 3, 6, 5]",NA,2855.5,"[3, 3, 6, 5]","436297",FALSE,321,"ds_main_response","",NA,4,1,25,3,"1",0,NA,0
"49","4",NA,"",NA,NA,FALSE,"digit_span","digit_span","","False","[7, 8, 8, 7]",NA,2658,"[7, 8, 8, 7]","440910",FALSE,330,"ds_main_response","",NA,4,1,26,3,"1",0,NA,0
"50","4",NA,"",NA,NA,FALSE,"digit_span","digit_span","","False","[2, 9, 2, 8]",NA,2480.19999999995,"[2, 9, 2, 8]","445352",FALSE,339,"ds_main_response","",NA,4,1,27,3,"1",0,NA,0
"51","4",NA,"",NA,NA,FALSE,"digit_span","digit_span","","False","[6, 7, 3, 2]",NA,2916.5,"[6, 7, 3, 2]","450214",FALSE,348,"ds_main_response","",NA,4,1,28,3,"1",0,NA,0
"52","4",NA,"",NA,NA,FALSE,"digit_span","digit_span","","False","[7, 4, 3, 4]",NA,3516.90000000002,"[7, 4, 3, 4]","455685",FALSE,357,"ds_main_response","",NA,4,1,29,3,"1",0,NA,0
"53","4",NA,"",NA,NA,FALSE,"digit_span","digit_span","","False","[4, 0, 3, 3]",NA,3437.09999999998,"[4, 0, 3, 3]","461065",FALSE,366,"ds_main_response","",NA,4,1,30,3,"1",0,NA,0
"54","4","2","False","1","3",FALSE,"digit_span","rest_task","","","2","0",NA,"","465595",TRUE,368,"rt_main_trials","block_A_B",NA,4,0,24,NA,"1",0,3,11
"55","4","1","False","1","3",FALSE,"digit_span","rest_task","","","1","1",NA,"","467140",TRUE,369,"rt_main_trials","block_A_B",NA,4,0,25,NA,"1",0,3,11
"56","4","2","False","1","3",FALSE,"digit_span","rest_task","","","2","2",727,"","468687",FALSE,370,"rt_main_trials","block_A_B",NA,4,1,26,NA,"1",0,3,11
"57","4","1","False","1","3",FALSE,"digit_span","rest_task","","","1","3",694,"","470235",FALSE,371,"rt_main_trials","block_A_B",NA,4,1,27,NA,"1",0,3,11
"58","4","1","False","1","3",FALSE,"digit_span","rest_task","","","1","4",893,"","471775",FALSE,372,"rt_main_trials","block_A_B",NA,4,1,28,NA,"1",0,3,11
"59","4","1","False","1","3",FALSE,"digit_span","rest_task","","","1","5",804,"","473315",FALSE,373,"rt_main_trials","block_A_B",NA,4,1,29,NA,"1",0,3,11
"60","4","1","False","1","3",FALSE,"digit_span","rest_task","","","1","6",878,"","474862",FALSE,374,"rt_main_trials","block_A_B",NA,4,1,30,NA,"1",0,3,11
"61","4","1","False","1","3",FALSE,"digit_span","rest_task","","","1","7",1145,"","476400",FALSE,375,"rt_main_trials","block_A_B",NA,4,1,31,NA,"1",0,3,11
"62","4","2","False","1","3",FALSE,"digit_span","rest_task","","","2","8",1048,"","477943",FALSE,376,"rt_main_trials","block_A_B",NA,4,1,32,NA,"1",0,3,11
"63","4","2","False","1","3",FALSE,"digit_span","rest_task","","","2","9",1254,"","479493",FALSE,377,"rt_main_trials","block_A_B",NA,4,1,33,NA,"1",0,3,11
"64","4","2","True","1","3",FALSE,"digit_span","rest_task","","","","10",NA,"","480447",TRUE,378,"rt_main_trials","block_A_B",NA,4,0,34,NA,"1",0,3,11
"65","4",NA,"",NA,NA,FALSE,"digit_span","spatial_recall","","false","",NA,NA,"[0, 8, 9, 11]","488318",TRUE,381,"sr_main_response","",NA,4,0,1,4,"2",0,NA,0
"66","4",NA,"",NA,NA,FALSE,"digit_span","spatial_recall","","false","",NA,2888.20000000007,"[1, 14, 8, 2]","493371",FALSE,383,"sr_main_response","",NA,4,1,2,4,"2",0,NA,0
"67","4",NA,"",NA,NA,FALSE,"digit_span","spatial_recall","","false","",NA,NA,"[2, 14, 12, 5]","499750",TRUE,385,"sr_main_response","",NA,4,0,3,4,"2",0,NA,0
"68","4",NA,"",NA,NA,FALSE,"digit_span","spatial_recall","","false","",NA,3073.90000000002,"[3, 0, 9, 15]","504997",FALSE,387,"sr_main_response","",NA,4,1,4,4,"2",0,NA,0
"69","4",NA,"",NA,NA,FALSE,"digit_span","spatial_recall","","false","",NA,2542.40000000002,"[14, 0, 6, 7]","509701",FALSE,389,"sr_main_response","",NA,4,1,5,4,"2",0,NA,0
"70","4",NA,"",NA,NA,FALSE,"digit_span","spatial_recall","","false","",NA,2367.69999999995,"[8, 1, 7, 3]","514230",FALSE,391,"sr_main_response","",NA,4,1,6,4,"2",0,NA,0
"71","4",NA,"",NA,NA,FALSE,"digit_span","spatial_recall","","false","",NA,3813.5,"[7, 8, 12, 11]","520205",FALSE,393,"sr_main_response","",NA,4,1,7,4,"2",0,NA,0
"72","4",NA,"",NA,NA,FALSE,"digit_span","spatial_recall","","false","",NA,2455.39999999991,"[4, 12, 10, 11]","524823",FALSE,395,"sr_main_response","",NA,4,1,8,4,"2",0,NA,0
"73","4",NA,"",NA,NA,FALSE,"digit_span","spatial_recall","","false","",NA,NA,"[15, 8, 11, 5]","531191",TRUE,397,"sr_main_response","",NA,4,0,9,4,"2",0,NA,0
"74","4",NA,"",NA,NA,FALSE,"digit_span","spatial_recall","","false","",NA,NA,"[11, 2, 10, 13]","537564",TRUE,399,"sr_main_response","",NA,4,0,10,4,"2",0,NA,0
"75","4","2","False",NA,"1",FALSE,"digit_span","rest_task","","","2","0",NA,"","542114",TRUE,401,"rt_main_trials","epoch_same_same",NA,4,0,35,NA,"2",0,4,12
"76","4","2","False",NA,"1",FALSE,"digit_span","rest_task","","","","1",NA,"","543661",TRUE,402,"rt_main_trials","epoch_same_same",NA,4,0,36,NA,"2",0,4,12
"77","4","1","False",NA,"1",FALSE,"digit_span","rest_task","","","1","2",706,"","545210",FALSE,403,"rt_main_trials","epoch_same_same",NA,4,1,37,NA,"2",0,4,12
"78","4","2","False",NA,"1",FALSE,"digit_span","rest_task","","","2","3",673,"","546752",FALSE,404,"rt_main_trials","epoch_same_same",NA,4,1,38,NA,"2",0,4,12
"79","4","1","False",NA,"1",FALSE,"digit_span","rest_task","","","1","4",504,"","548300",FALSE,405,"rt_main_trials","epoch_same_same",NA,4,1,39,NA,"2",0,4,12
"80","4","1","False",NA,"1",FALSE,"digit_span","rest_task","","","1","5",724,"","549849",FALSE,406,"rt_main_trials","epoch_same_same",NA,4,1,40,NA,"2",0,4,12
"81","4","1","False",NA,"1",FALSE,"digit_span","rest_task","","","1","6",702,"","551387",FALSE,407,"rt_main_trials","epoch_same_same",NA,4,1,41,NA,"2",0,4,12
"82","4","2","False",NA,"1",FALSE,"digit_span","rest_task","","","2","7",802,"","552929",FALSE,408,"rt_main_trials","epoch_same_same",NA,4,1,42,NA,"2",0,4,12
"83","4","1","False",NA,"1",FALSE,"digit_span","rest_task","","","1","8",747,"","554470",FALSE,409,"rt_main_trials","epoch_same_same",NA,4,1,43,NA,"2",0,4,12
"84","4","2","False",NA,"1",FALSE,"digit_span","rest_task","","","2","9",1146,"","556009",FALSE,410,"rt_main_trials","epoch_same_same",NA,4,1,44,NA,"2",0,4,12
"85","4","2","False",NA,"1",FALSE,"digit_span","rest_task","","","2","10",656,"","557547",FALSE,411,"rt_main_trials","epoch_same_same",NA,4,1,45,NA,"2",0,4,12
"86","4","1","True",NA,"1",FALSE,"digit_span","rest_task","","","","11",NA,"","557813",TRUE,412,"rt_main_trials","epoch_same_same",NA,4,0,46,NA,"2",0,4,12
"87","4",NA,"",NA,NA,FALSE,"digit_span","spatial_recall","","false","",NA,NA,"[13, 1, 2, 3]","565681",TRUE,415,"sr_main_response","",NA,4,0,11,5,"2",0,NA,0
"88","4",NA,"",NA,NA,FALSE,"digit_span","spatial_recall","","false","",NA,3735.30000000005,"[14, 11, 6, 2]","571578",FALSE,417,"sr_main_response","",NA,4,1,12,5,"2",0,NA,0
"89","4",NA,"",NA,NA,FALSE,"digit_span","spatial_recall","","false","",NA,2439.39999999991,"[14, 7, 5, 6]","576181",FALSE,419,"sr_main_response","",NA,4,1,13,5,"2",0,NA,0
"90","4",NA,"",NA,NA,FALSE,"digit_span","spatial_recall","","false","",NA,NA,"[12, 9, 4, 2]","582547",TRUE,421,"sr_main_response","",NA,4,0,14,5,"2",0,NA,0
"91","4",NA,"",NA,NA,FALSE,"digit_span","spatial_recall","","false","",NA,NA,"[15, 4, 12, 1]","588921",TRUE,423,"sr_main_response","",NA,4,0,15,5,"2",0,NA,0
"92","4",NA,"",NA,NA,FALSE,"digit_span","spatial_recall","","false","",NA,NA,"[3, 13, 0, 10]","595297",TRUE,425,"sr_main_response","",NA,4,0,16,5,"2",0,NA,0
"93","4",NA,"",NA,NA,FALSE,"digit_span","spatial_recall","","false","",NA,NA,"[9, 6, 8, 12]","601669",TRUE,427,"sr_main_response","",NA,4,0,17,5,"2",0,NA,0
"94","4",NA,"",NA,NA,FALSE,"digit_span","spatial_recall","","false","",NA,2472.40000000014,"[5, 10, 11, 8]","606304",FALSE,429,"sr_main_response","",NA,4,1,18,5,"2",0,NA,0
"95","4",NA,"",NA,NA,FALSE,"digit_span","spatial_recall","","false","",NA,4179.30000000005,"[0, 11, 7, 6]","612658",FALSE,431,"sr_main_response","",NA,4,1,19,5,"2",0,NA,0
"96","4",NA,"",NA,NA,FALSE,"digit_span","spatial_recall","","false","",NA,NA,"[8, 11, 13, 2]","619030",TRUE,433,"sr_main_response","",NA,4,0,20,5,"2",0,NA,0
"97","4","2","False",NA,"2",FALSE,"digit_span","rest_task","","","2","0",908,"","623582",FALSE,435,"rt_main_trials","epoch_same_same",NA,4,1,47,NA,"2",0,5,16
"98","4","1","False",NA,"2",FALSE,"digit_span","rest_task","","","1","1",894,"","625132",FALSE,436,"rt_main_trials","epoch_same_same",NA,4,1,48,NA,"2",0,5,16
"99","4","2","False",NA,"2",FALSE,"digit_span","rest_task","","","2","2",972,"","626682",FALSE,437,"rt_main_trials","epoch_same_same",NA,4,1,49,NA,"2",0,5,16
"100","4","1","False",NA,"2",FALSE,"digit_span","rest_task","","","1","3",1174,"","628223",FALSE,438,"rt_main_trials","epoch_same_same",NA,4,1,50,NA,"2",0,5,16
"101","4","1","False",NA,"2",FALSE,"digit_span","rest_task","","","1","4",933,"","629764",FALSE,439,"rt_main_trials","epoch_same_same",NA,4,1,51,NA,"2",0,5,16
"102","4","1","False",NA,"2",FALSE,"digit_span","rest_task","","","1","5",655,"","631311",FALSE,440,"rt_main_trials","epoch_same_same",NA,4,1,52,NA,"2",0,5,16
"103","4","2","False",NA,"2",FALSE,"digit_span","rest_task","","","2","6",469,"","632859",FALSE,441,"rt_main_trials","epoch_same_same",NA,4,1,53,NA,"2",0,5,16
"104","4","2","False",NA,"2",FALSE,"digit_span","rest_task","","","2","7",407,"","634399",FALSE,442,"rt_main_trials","epoch_same_same",NA,4,1,54,NA,"2",0,5,16
"105","4","2","False",NA,"2",FALSE,"digit_span","rest_task","","","2","8",421,"","635940",FALSE,443,"rt_main_trials","epoch_same_same",NA,4,1,55,NA,"2",0,5,16
"106","4","1","False",NA,"2",FALSE,"digit_span","rest_task","","","1","9",384,"","637480",FALSE,444,"rt_main_trials","epoch_same_same",NA,4,1,56,NA,"2",0,5,16
"107","4","1","False",NA,"2",FALSE,"digit_span","rest_task","","","1","10",370,"","639017",FALSE,445,"rt_main_trials","epoch_same_same",NA,4,1,57,NA,"2",0,5,16
"108","4","2","False",NA,"2",FALSE,"digit_span","rest_task","","","2","11",459,"","640554",FALSE,446,"rt_main_trials","epoch_same_same",NA,4,1,58,NA,"2",0,5,16
"109","4","2","False",NA,"2",FALSE,"digit_span","rest_task","","","2","12",434,"","642102",FALSE,447,"rt_main_trials","epoch_same_same",NA,4,1,59,NA,"2",0,5,16
"110","4","2","False",NA,"2",FALSE,"digit_span","rest_task","","","2","13",405,"","643651",FALSE,448,"rt_main_trials","epoch_same_same",NA,4,1,60,NA,"2",0,5,16
"111","4","1","False",NA,"2",FALSE,"digit_span","rest_task","","","1","14",505,"","645186",FALSE,449,"rt_main_trials","epoch_same_same",NA,4,1,61,NA,"2",0,5,16
"112","4","2","True",NA,"2",FALSE,"digit_span","rest_task","","","","15",NA,"","645765",TRUE,450,"rt_main_trials","epoch_same_same",NA,4,0,62,NA,"2",0,5,16
"113","4",NA,"",NA,NA,FALSE,"digit_span","spatial_recall","","false","",NA,2775.59999999986,"[3, 15, 1, 9]","652203",FALSE,453,"sr_main_response","",NA,4,1,21,6,"2",0,NA,0
"114","4",NA,"",NA,NA,FALSE,"digit_span","spatial_recall","","false","",NA,4054.90000000014,"[7, 1, 6, 3]","658421",FALSE,455,"sr_main_response","",NA,4,1,22,6,"2",0,NA,0
"115","4",NA,"",NA,NA,FALSE,"digit_span","spatial_recall","","false","",NA,2275.30000000005,"[8, 14, 13, 3]","662859",FALSE,457,"sr_main_response","",NA,4,1,23,6,"2",0,NA,0
"116","4",NA,"",NA,NA,FALSE,"digit_span","spatial_recall","","false","",NA,2433,"[4, 11, 3, 14]","667453",FALSE,459,"sr_main_response","",NA,4,1,24,6,"2",0,NA,0
"117","4",NA,"",NA,NA,FALSE,"digit_span","spatial_recall","","false","",NA,2114.89999999991,"[8, 4, 3, 7]","671733",FALSE,461,"sr_main_response","",NA,4,1,25,6,"2",0,NA,0
"118","4",NA,"",NA,NA,FALSE,"digit_span","spatial_recall","","false","",NA,2221.39999999991,"[6, 8, 13, 15]","676115",FALSE,463,"sr_main_response","",NA,4,1,26,6,"2",0,NA,0
"119","4",NA,"",NA,NA,FALSE,"digit_span","spatial_recall","","false","",NA,2374.5,"[10, 1, 4, 2]","680655",FALSE,465,"sr_main_response","",NA,4,1,27,6,"2",0,NA,0
"120","4",NA,"",NA,NA,FALSE,"digit_span","spatial_recall","","false","",NA,2240.19999999995,"[4, 13, 6, 3]","685056",FALSE,467,"sr_main_response","",NA,4,1,28,6,"2",0,NA,0
"121","4",NA,"",NA,NA,FALSE,"digit_span","spatial_recall","","false","",NA,2155.30000000005,"[1, 9, 10, 8]","689377",FALSE,469,"sr_main_response","",NA,4,1,29,6,"2",0,NA,0
"122","4",NA,"",NA,NA,FALSE,"digit_span","spatial_recall","","false","",NA,2528.19999999995,"[5, 14, 4, 2]","694080",FALSE,471,"sr_main_response","",NA,4,1,30,6,"2",0,NA,0
"123","4","1","False","2","3",FALSE,"digit_span","rest_task","","","1","0",949,"","698647",FALSE,473,"rt_main_trials","block_B_A",NA,4,1,63,NA,"2",0,6,19
"124","4","2","False","2","3",FALSE,"digit_span","rest_task","","","2","1",628,"","700189",FALSE,474,"rt_main_trials","block_B_A",NA,4,1,64,NA,"2",0,6,19
"125","4","2","False","2","3",FALSE,"digit_span","rest_task","","","2","2",689,"","701730",FALSE,475,"rt_main_trials","block_B_A",NA,4,1,65,NA,"2",0,6,19
"126","4","1","False","2","3",FALSE,"digit_span","rest_task","","","1","3",816,"","703277",FALSE,476,"rt_main_trials","block_B_A",NA,4,1,66,NA,"2",0,6,19
"127","4","2","False","2","3",FALSE,"digit_span","rest_task","","","2","4",678,"","704817",FALSE,477,"rt_main_trials","block_B_A",NA,4,1,67,NA,"2",0,6,19
"128","4","2","False","2","3",FALSE,"digit_span","rest_task","","","2","5",432,"","706355",FALSE,478,"rt_main_trials","block_B_A",NA,4,1,68,NA,"2",0,6,19
"129","4","2","False","2","3",FALSE,"digit_span","rest_task","","","2","6",444,"","707898",FALSE,479,"rt_main_trials","block_B_A",NA,4,1,69,NA,"2",0,6,19
"130","4","1","False","2","3",FALSE,"digit_span","rest_task","","","1","7",437,"","709436",FALSE,480,"rt_main_trials","block_B_A",NA,4,1,70,NA,"2",0,6,19
"131","4","1","False","2","3",FALSE,"digit_span","rest_task","","","1","8",313,"","710986",FALSE,481,"rt_main_trials","block_B_A",NA,4,1,71,NA,"2",0,6,19
"132","4","1","False","2","3",FALSE,"digit_span","rest_task","","","1","9",307,"","712536",FALSE,482,"rt_main_trials","block_B_A",NA,4,1,72,NA,"2",0,6,19
"133","4","1","False","2","3",FALSE,"digit_span","rest_task","","","1","10",266,"","714075",FALSE,483,"rt_main_trials","block_B_A",NA,4,1,73,NA,"2",0,6,19
"134","4","2","False","2","3",FALSE,"digit_span","rest_task","","","2","11",615,"","715619",FALSE,484,"rt_main_trials","block_B_A",NA,4,1,74,NA,"2",0,6,19
"135","4","2","False","2","3",FALSE,"digit_span","rest_task","","","2","12",356,"","717163",FALSE,485,"rt_main_trials","block_B_A",NA,4,1,75,NA,"2",0,6,19
"136","4","1","False","2","3",FALSE,"digit_span","rest_task","","","1","13",469,"","718708",FALSE,486,"rt_main_trials","block_B_A",NA,4,1,76,NA,"2",0,6,19
"137","4","2","False","2","3",FALSE,"digit_span","rest_task","","","2","14",602,"","720246",FALSE,487,"rt_main_trials","block_B_A",NA,4,1,77,NA,"2",0,6,19
"138","4","2","False","2","3",FALSE,"digit_span","rest_task","","","2","15",463,"","721788",FALSE,488,"rt_main_trials","block_B_A",NA,4,1,78,NA,"2",0,6,19
"139","4","2","False","2","3",FALSE,"digit_span","rest_task","","","2","16",394,"","723326",FALSE,489,"rt_main_trials","block_B_A",NA,4,1,79,NA,"2",0,6,19
"140","4","2","False","2","3",FALSE,"digit_span","rest_task","","","2","17",355,"","724865",FALSE,490,"rt_main_trials","block_B_A",NA,4,1,80,NA,"2",0,6,19
"141","4","2","True","2","3",FALSE,"digit_span","rest_task","","","2","18",349,"","726402",FALSE,491,"rt_main_trials","block_B_A",NA,4,1,81,NA,"2",0,6,19
"142","4",NA,"",NA,NA,FALSE,"digit_span","digit_span","","False","[]",NA,NA,"[2, 7, 7, 3]","734071",TRUE,501,"ds_main_response","",NA,4,0,31,7,"3",0,NA,0
"143","4",NA,"",NA,NA,FALSE,"digit_span","digit_span","","False","[0, 4, 8, 6]",NA,2724.5,"[0, 4, 8, 6]","738755",FALSE,510,"ds_main_response","",NA,4,1,32,7,"3",0,NA,0
"144","4",NA,"",NA,NA,FALSE,"digit_span","digit_span","","False","[3, 3, 4, 0]",NA,2563.89999999991,"[3, 3, 4, 0]","743260",FALSE,519,"ds_main_response","",NA,4,1,33,7,"3",0,NA,0
"145","4",NA,"",NA,NA,FALSE,"digit_span","digit_span","","False","[2, 5, 8, 9]",NA,2559.5,"[2, 5, 8, 9]","747752",FALSE,528,"ds_main_response","",NA,4,1,34,7,"3",0,NA,0
"146","4",NA,"",NA,NA,FALSE,"digit_span","digit_span","","False","[4, 5, 5, 2]",NA,2192.19999999995,"[4, 5, 5, 2]","751887",FALSE,537,"ds_main_response","",NA,4,1,35,7,"3",0,NA,0
"147","4",NA,"",NA,NA,FALSE,"digit_span","digit_span","","False","[8, 3, 2, 3]",NA,2789.40000000014,"[8, 3, 2, 3]","756632",FALSE,546,"ds_main_response","",NA,4,1,36,7,"3",0,NA,0
"148","4",NA,"",NA,NA,FALSE,"digit_span","digit_span","","False","[3, 3, 2, 5]",NA,2293.10000000009,"[3, 3, 2, 5]","760889",FALSE,555,"ds_main_response","",NA,4,1,37,7,"3",0,NA,0
"149","4",NA,"",NA,NA,FALSE,"digit_span","digit_span","","False","[0, 0, 9, 8]",NA,2010.10000000009,"[0, 0, 9, 8]","764829",FALSE,564,"ds_main_response","",NA,4,1,38,7,"3",0,NA,0
"150","4",NA,"",NA,NA,FALSE,"digit_span","digit_span","","False","[1, 9, 5, 5]",NA,2820.59999999986,"[1, 9, 5, 5]","769611",FALSE,573,"ds_main_response","",NA,4,1,39,7,"3",0,NA,0
"151","4",NA,"",NA,NA,FALSE,"digit_span","digit_span","","False","[0, 7, 8, 8]",NA,2873.89999999991,"[0, 7, 8, 8]","774416",FALSE,582,"ds_main_response","",NA,4,1,40,7,"3",0,NA,0
"152","4","2","False",NA,"1",FALSE,"digit_span","rest_task","","","2","0",1148,"","778962",FALSE,584,"rt_main_trials","epoch_same_same",NA,4,1,82,NA,"3",0,7,8
"153","4","2","False",NA,"1",FALSE,"digit_span","rest_task","","","2","1",830,"","780513",FALSE,585,"rt_main_trials","epoch_same_same",NA,4,1,83,NA,"3",0,7,8
"154","4","2","False",NA,"1",FALSE,"digit_span","rest_task","","","2","2",1071,"","782061",FALSE,586,"rt_main_trials","epoch_same_same",NA,4,1,84,NA,"3",0,7,8
"155","4","2","False",NA,"1",FALSE,"digit_span","rest_task","","","2","3",631,"","783606",FALSE,587,"rt_main_trials","epoch_same_same",NA,4,1,85,NA,"3",0,7,8
"156","4","1","False",NA,"1",FALSE,"digit_span","rest_task","","","1","4",480,"","785141",FALSE,588,"rt_main_trials","epoch_same_same",NA,4,1,86,NA,"3",0,7,8
"157","4","2","False",NA,"1",FALSE,"digit_span","rest_task","","","2","5",448,"","786679",FALSE,589,"rt_main_trials","epoch_same_same",NA,4,1,87,NA,"3",0,7,8
"158","4","1","False",NA,"1",FALSE,"digit_span","rest_task","","","1","6",500,"","788220",FALSE,590,"rt_main_trials","epoch_same_same",NA,4,1,88,NA,"3",0,7,8
"159","4","1","True",NA,"1",FALSE,"digit_span","rest_task","","","","7",NA,"","788499",TRUE,591,"rt_main_trials","epoch_same_same",NA,4,0,89,NA,"3",0,7,8
"160","4",NA,"",NA,NA,FALSE,"digit_span","digit_span","","False","[6, 2, 8, 6]",NA,2478.69999999995,"[6, 2, 8, 6]","794436",FALSE,601,"ds_main_response","",NA,4,1,41,8,"3",0,NA,0
"161","4",NA,"",NA,NA,FALSE,"digit_span","digit_span","","False","[4, 1, 2, 9]",NA,2057.89999999991,"[4, 1, 2, 9]","798435",FALSE,610,"ds_main_response","",NA,4,1,42,8,"3",0,NA,0
"162","4",NA,"",NA,NA,FALSE,"digit_span","digit_span","","False","[3, 3, 4, 8]",NA,2367.40000000014,"[3, 3, 4, 8]","802747",FALSE,619,"ds_main_response","",NA,4,1,43,8,"3",0,NA,0
"163","4",NA,"",NA,NA,FALSE,"digit_span","digit_span","","False","[2, 6, 7, 7]",NA,2315.69999999995,"[2, 6, 7, 7]","807025",FALSE,628,"ds_main_response","",NA,4,1,44,8,"3",0,NA,0
"164","4",NA,"",NA,NA,FALSE,"digit_span","digit_span","","False","[6, 8, 9, 7]",NA,3753.10000000009,"[6, 8, 9, 7]","812718",FALSE,637,"ds_main_response","",NA,4,1,45,8,"3",0,NA,0
"165","4",NA,"",NA,NA,FALSE,"digit_span","digit_span","","False","[0, 6, 5, 8]",NA,2425.5,"[0, 6, 5, 8]","817082",FALSE,646,"ds_main_response","",NA,4,1,46,8,"3",0,NA,0
"166","4",NA,"",NA,NA,FALSE,"digit_span","digit_span","","False","[3, 4, 6, 7]",NA,2786.89999999991,"[3, 4, 6, 7]","821810",FALSE,655,"ds_main_response","",NA,4,1,47,8,"3",0,NA,0
"167","4",NA,"",NA,NA,FALSE,"digit_span","digit_span","","False","[4, 9, 1, 9]",NA,2930.30000000005,"[4, 9, 1, 9]","826706",FALSE,664,"ds_main_response","",NA,4,1,48,8,"3",0,NA,0
"168","4",NA,"",NA,NA,FALSE,"digit_span","digit_span","","False","[9, 7, 5, 9]",NA,2559.10000000009,"[9, 7, 5, 9]","831218",FALSE,673,"ds_main_response","",NA,4,1,49,8,"3",0,NA,0
"169","4",NA,"",NA,NA,FALSE,"digit_span","digit_span","","False","[2, 6, 0, 9]",NA,2070.39999999991,"[2, 6, 0, 9]","835227",FALSE,682,"ds_main_response","",NA,4,1,50,8,"3",0,NA,0
"170","4","2","False",NA,"2",FALSE,"digit_span","rest_task","","","2","0",1181,"","839792",FALSE,684,"rt_main_trials","epoch_same_same",NA,4,1,90,NA,"3",0,8,20
"171","4","2","False",NA,"2",FALSE,"digit_span","rest_task","","","2","1",1156,"","841342",FALSE,685,"rt_main_trials","epoch_same_same",NA,4,1,91,NA,"3",0,8,20
"172","4","2","False",NA,"2",FALSE,"digit_span","rest_task","","","2","2",982,"","842888",FALSE,686,"rt_main_trials","epoch_same_same",NA,4,1,92,NA,"3",0,8,20
"173","4","1","False",NA,"2",FALSE,"digit_span","rest_task","","","1","3",549,"","844440",FALSE,687,"rt_main_trials","epoch_same_same",NA,4,1,93,NA,"3",0,8,20
"174","4","1","False",NA,"2",FALSE,"digit_span","rest_task","","","1","4",723,"","845975",FALSE,688,"rt_main_trials","epoch_same_same",NA,4,1,94,NA,"3",0,8,20
"175","4","2","False",NA,"2",FALSE,"digit_span","rest_task","","","2","5",536,"","847524",FALSE,689,"rt_main_trials","epoch_same_same",NA,4,1,95,NA,"3",0,8,20
"176","4","1","False",NA,"2",FALSE,"digit_span","rest_task","","","1","6",453,"","849067",FALSE,690,"rt_main_trials","epoch_same_same",NA,4,1,96,NA,"3",0,8,20
"177","4","1","False",NA,"2",FALSE,"digit_span","rest_task","","","1","7",668,"","850615",FALSE,691,"rt_main_trials","epoch_same_same",NA,4,1,97,NA,"3",0,8,20
"178","4","1","False",NA,"2",FALSE,"digit_span","rest_task","","","1","8",642,"","852162",FALSE,692,"rt_main_trials","epoch_same_same",NA,4,1,98,NA,"3",0,8,20
"179","4","1","False",NA,"2",FALSE,"digit_span","rest_task","","","1","9",488,"","853711",FALSE,693,"rt_main_trials","epoch_same_same",NA,4,1,99,NA,"3",0,8,20
"180","4","1","False",NA,"2",FALSE,"digit_span","rest_task","","","1","10",373,"","855251",FALSE,694,"rt_main_trials","epoch_same_same",NA,4,1,100,NA,"3",0,8,20
"181","4","2","False",NA,"2",FALSE,"digit_span","rest_task","","","2","11",514,"","856796",FALSE,695,"rt_main_trials","epoch_same_same",NA,4,1,101,NA,"3",0,8,20
"182","4","1","False",NA,"2",FALSE,"digit_span","rest_task","","","1","12",553,"","858343",FALSE,696,"rt_main_trials","epoch_same_same",NA,4,1,102,NA,"3",0,8,20
"183","4","2","False",NA,"2",FALSE,"digit_span","rest_task","","","2","13",449,"","859881",FALSE,697,"rt_main_trials","epoch_same_same",NA,4,1,103,NA,"3",0,8,20
"184","4","2","False",NA,"2",FALSE,"digit_span","rest_task","","","2","14",365,"","861428",FALSE,698,"rt_main_trials","epoch_same_same",NA,4,1,104,NA,"3",0,8,20
"185","4","1","False",NA,"2",FALSE,"digit_span","rest_task","","","1","15",436,"","862980",FALSE,699,"rt_main_trials","epoch_same_same",NA,4,1,105,NA,"3",0,8,20
"186","4","2","False",NA,"2",FALSE,"digit_span","rest_task","","","2","16",649,"","864522",FALSE,700,"rt_main_trials","epoch_same_same",NA,4,1,106,NA,"3",0,8,20
"187","4","2","False",NA,"2",FALSE,"digit_span","rest_task","","","2","17",531,"","866072",FALSE,701,"rt_main_trials","epoch_same_same",NA,4,1,107,NA,"3",0,8,20
"188","4","1","False",NA,"2",FALSE,"digit_span","rest_task","","","1","18",479,"","867622",FALSE,702,"rt_main_trials","epoch_same_same",NA,4,1,108,NA,"3",0,8,20
"189","4","2","False",NA,"2",FALSE,"digit_span","rest_task","","","2","19",468,"","869163",FALSE,703,"rt_main_trials","epoch_same_same",NA,4,1,109,NA,"3",0,8,20
"190","4",NA,"",NA,NA,FALSE,"digit_span","digit_span","","False","[6, 6, 1, 1]",NA,2762.80000000005,"[6, 6, 1, 1]","875384",FALSE,713,"ds_main_response","",NA,4,1,51,9,"3",0,NA,0
"191","4",NA,"",NA,NA,FALSE,"digit_span","digit_span","","False","[4, 1, 9, 4]",NA,2892.69999999995,"[4, 1, 9, 4]","880230",FALSE,722,"ds_main_response","",NA,4,1,52,9,"3",0,NA,0
"192","4",NA,"",NA,NA,FALSE,"digit_span","digit_span","","False","[8, 4, 0, 7]",NA,2123.59999999986,"[8, 4, 0, 7]","884292",FALSE,731,"ds_main_response","",NA,4,1,53,9,"3",0,NA,0
"193","4",NA,"",NA,NA,FALSE,"digit_span","digit_span","","False","[0, 3, 4, 4]",NA,2208.60000000009,"[0, 3, 4, 4]","888426",FALSE,740,"ds_main_response","",NA,4,1,54,9,"3",0,NA,0
"194","4",NA,"",NA,NA,FALSE,"digit_span","digit_span","","False","[3, 3, 6, 5]",NA,1899,"[3, 3, 6, 5]","892262",FALSE,749,"ds_main_response","",NA,4,1,55,9,"3",0,NA,0
"195","4",NA,"",NA,NA,FALSE,"digit_span","digit_span","","False","[7, 8, 8, 7]",NA,1934.19999999995,"[7, 8, 8, 7]","896142",FALSE,758,"ds_main_response","",NA,4,1,56,9,"3",0,NA,0
"196","4",NA,"",NA,NA,FALSE,"digit_span","digit_span","","False","[2, 9, 2, 8]",NA,3052.20000000019,"[2, 9, 2, 8]","901134",FALSE,767,"ds_main_response","",NA,4,1,57,9,"3",0,NA,0
"197","4",NA,"",NA,NA,FALSE,"digit_span","digit_span","","False","[6, 7, 3, 2]",NA,3209.39999999991,"[6, 7, 3, 2]","906297",FALSE,776,"ds_main_response","",NA,4,1,58,9,"3",0,NA,0
"198","4",NA,"",NA,NA,FALSE,"digit_span","digit_span","","False","[7, 4, 3, 4]",NA,2993.40000000014,"[7, 4, 3, 4]","911249",FALSE,785,"ds_main_response","",NA,4,1,59,9,"3",0,NA,0
"199","4",NA,"",NA,NA,FALSE,"digit_span","digit_span","","False","[4, 0, 3, 3]",NA,3084.19999999995,"[4, 0, 3, 3]","916272",FALSE,794,"ds_main_response","",NA,4,1,60,9,"3",0,NA,0
"200","4","2","False","3","3",FALSE,"digit_span","rest_task","","","2","0",649,"","920829",FALSE,796,"rt_main_trials","block_A_B",NA,4,1,110,NA,"3",0,9,16
"201","4","1","False","3","3",FALSE,"digit_span","rest_task","","","1","1",429,"","922363",FALSE,797,"rt_main_trials","block_A_B",NA,4,1,111,NA,"3",0,9,16
"202","4","2","False","3","3",FALSE,"digit_span","rest_task","","","2","2",529,"","923914",FALSE,798,"rt_main_trials","block_A_B",NA,4,1,112,NA,"3",0,9,16
"203","4","2","False","3","3",FALSE,"digit_span","rest_task","","","2","3",516,"","925455",FALSE,799,"rt_main_trials","block_A_B",NA,4,1,113,NA,"3",0,9,16
"204","4","2","False","3","3",FALSE,"digit_span","rest_task","","","2","4",487,"","926992",FALSE,800,"rt_main_trials","block_A_B",NA,4,1,114,NA,"3",0,9,16
"205","4","2","False","3","3",FALSE,"digit_span","rest_task","","","2","5",461,"","928532",FALSE,801,"rt_main_trials","block_A_B",NA,4,1,115,NA,"3",0,9,16
"206","4","2","False","3","3",FALSE,"digit_span","rest_task","","","2","6",374,"","930081",FALSE,802,"rt_main_trials","block_A_B",NA,4,1,116,NA,"3",0,9,16
"207","4","2","False","3","3",FALSE,"digit_span","rest_task","","","2","7",320,"","931632",FALSE,803,"rt_main_trials","block_A_B",NA,4,1,117,NA,"3",0,9,16
"208","4","2","False","3","3",FALSE,"digit_span","rest_task","","","2","8",394,"","933181",FALSE,804,"rt_main_trials","block_A_B",NA,4,1,118,NA,"3",0,9,16
"209","4","2","False","3","3",FALSE,"digit_span","rest_task","","","2","9",276,"","934728",FALSE,805,"rt_main_trials","block_A_B",NA,4,1,119,NA,"3",0,9,16
"210","4","2","False","3","3",FALSE,"digit_span","rest_task","","","2","10",210,"","936271",FALSE,806,"rt_main_trials","block_A_B",NA,4,1,120,NA,"3",0,9,16
"211","4","2","False","3","3",FALSE,"digit_span","rest_task","","","2","11",303,"","937819",FALSE,807,"rt_main_trials","block_A_B",NA,4,1,121,NA,"3",0,9,16
"212","4","2","False","3","3",FALSE,"digit_span","rest_task","","","2","12",273,"","939358",FALSE,808,"rt_main_trials","block_A_B",NA,4,1,122,NA,"3",0,9,16
"213","4","2","False","3","3",FALSE,"digit_span","rest_task","","","2","13",86,"","940897",FALSE,809,"rt_main_trials","block_A_B",NA,4,1,123,NA,"3",0,9,16
"214","4","1","False","3","3",FALSE,"digit_span","rest_task","","","2","14",137,"","942430",FALSE,810,"rt_main_trials","block_A_B",NA,4,1,124,NA,"3",0,9,16
"215","4","1","True","3","3",FALSE,"digit_span","rest_task","","","","15",NA,"","943146",TRUE,811,"rt_main_trials","block_A_B",NA,4,0,125,NA,"3",0,9,16
"216","4",NA,"",NA,NA,FALSE,"digit_span","spatial_recall","","false","",NA,2967.70000000019,"[6, 8, 10, 2]","949783",FALSE,814,"sr_main_response","",NA,4,1,31,10,"4",0,NA,0
"217","4",NA,"",NA,NA,FALSE,"digit_span","spatial_recall","","false","",NA,2293.30000000005,"[12, 2, 4, 9]","954247",FALSE,816,"sr_main_response","",NA,4,1,32,10,"4",0,NA,0
"218","4",NA,"",NA,NA,FALSE,"digit_span","spatial_recall","","false","",NA,2339.19999999995,"[9, 8, 3, 0]","958748",FALSE,818,"sr_main_response","",NA,4,1,33,10,"4",0,NA,0
"219","4",NA,"",NA,NA,FALSE,"digit_span","spatial_recall","","false","",NA,2735.30000000005,"[9, 15, 3, 2]","963645",FALSE,820,"sr_main_response","",NA,4,1,34,10,"4",0,NA,0
"220","4",NA,"",NA,NA,FALSE,"digit_span","spatial_recall","","false","",NA,2296.69999999995,"[14, 6, 9, 5]","968103",FALSE,822,"sr_main_response","",NA,4,1,35,10,"4",0,NA,0
"221","4",NA,"",NA,NA,FALSE,"digit_span","spatial_recall","","false","",NA,2088.60000000009,"[14, 4, 8, 1]","972354",FALSE,824,"sr_main_response","",NA,4,1,36,10,"4",0,NA,0
"222","4",NA,"",NA,NA,FALSE,"digit_span","spatial_recall","","false","",NA,2578.80000000005,"[13, 2, 14, 0]","977104",FALSE,826,"sr_main_response","",NA,4,1,37,10,"4",0,NA,0
"223","4",NA,"",NA,NA,FALSE,"digit_span","spatial_recall","","false","",NA,2404.39999999991,"[5, 0, 2, 1]","981675",FALSE,828,"sr_main_response","",NA,4,1,38,10,"4",0,NA,0
"224","4",NA,"",NA,NA,FALSE,"digit_span","spatial_recall","","false","",NA,NA,"[4, 14, 11, 9]","988046",TRUE,830,"sr_main_response","",NA,4,0,39,10,"4",0,NA,0
"225","4",NA,"",NA,NA,FALSE,"digit_span","spatial_recall","","false","",NA,2325.59999999986,"[11, 8, 6, 5]","992544",FALSE,832,"sr_main_response","",NA,4,1,40,10,"4",0,NA,0
"226","4","2","False",NA,"1",FALSE,"digit_span","rest_task","","","","0",NA,"","997100",TRUE,834,"rt_main_trials","epoch_same_same",NA,4,0,126,NA,"4",0,10,14
"227","4","2","False",NA,"1",FALSE,"digit_span","rest_task","","","2","1",26,"","998641",FALSE,835,"rt_main_trials","epoch_same_same",NA,4,1,127,NA,"4",0,10,14
"228","4","1","False",NA,"1",FALSE,"digit_span","rest_task","","","1","2",554,"","1000190",FALSE,836,"rt_main_trials","epoch_same_same",NA,4,1,128,NA,"4",0,10,14
"229","4","2","False",NA,"1",FALSE,"digit_span","rest_task","","","2","3",644,"","1001742",FALSE,837,"rt_main_trials","epoch_same_same",NA,4,1,129,NA,"4",0,10,14
"230","4","1","False",NA,"1",FALSE,"digit_span","rest_task","","","1","4",683,"","1003282",FALSE,838,"rt_main_trials","epoch_same_same",NA,4,1,130,NA,"4",0,10,14
"231","4","1","False",NA,"1",FALSE,"digit_span","rest_task","","","1","5",649,"","1004827",FALSE,839,"rt_main_trials","epoch_same_same",NA,4,1,131,NA,"4",0,10,14
"232","4","1","False",NA,"1",FALSE,"digit_span","rest_task","","","1","6",801,"","1006377",FALSE,840,"rt_main_trials","epoch_same_same",NA,4,1,132,NA,"4",0,10,14
"233","4","2","False",NA,"1",FALSE,"digit_span","rest_task","","","2","7",814,"","1007916",FALSE,841,"rt_main_trials","epoch_same_same",NA,4,1,133,NA,"4",0,10,14
"234","4","1","False",NA,"1",FALSE,"digit_span","rest_task","","","1","8",520,"","1009467",FALSE,842,"rt_main_trials","epoch_same_same",NA,4,1,134,NA,"4",0,10,14
"235","4","2","False",NA,"1",FALSE,"digit_span","rest_task","","","2","9",557,"","1011021",FALSE,843,"rt_main_trials","epoch_same_same",NA,4,1,135,NA,"4",0,10,14
"236","4","2","False",NA,"1",FALSE,"digit_span","rest_task","","","2","10",415,"","1012570",FALSE,844,"rt_main_trials","epoch_same_same",NA,4,1,136,NA,"4",0,10,14
"237","4","1","False",NA,"1",FALSE,"digit_span","rest_task","","","1","11",494,"","1014105",FALSE,845,"rt_main_trials","epoch_same_same",NA,4,1,137,NA,"4",0,10,14
"238","4","2","False",NA,"1",FALSE,"digit_span","rest_task","","","","12",NA,"","1015640",TRUE,846,"rt_main_trials","epoch_same_same",NA,4,0,138,NA,"4",0,10,14
"239","4","1","True",NA,"1",FALSE,"digit_span","rest_task","","","","13",NA,"","1016999",TRUE,847,"rt_main_trials","epoch_same_same",NA,4,0,139,NA,"4",0,10,14
"240","4",NA,"",NA,NA,FALSE,"digit_span","spatial_recall","","false","",NA,NA,"[7, 15, 5, 3]","1024889",TRUE,850,"sr_main_response","",NA,4,0,41,11,"4",0,NA,0
"241","4",NA,"",NA,NA,FALSE,"digit_span","spatial_recall","","false","",NA,2162.79999999981,"[3, 8, 5, 2]","1029222",FALSE,852,"sr_main_response","",NA,4,1,42,11,"4",0,NA,0
"242","4",NA,"",NA,NA,FALSE,"digit_span","spatial_recall","","false","",NA,2165.89999999991,"[1, 3, 10, 11]","1033556",FALSE,854,"sr_main_response","",NA,4,1,43,11,"4",0,NA,0
"243","4",NA,"",NA,NA,FALSE,"digit_span","spatial_recall","","false","",NA,2175,"[0, 12, 11, 5]","1037892",FALSE,856,"sr_main_response","",NA,4,1,44,11,"4",0,NA,0
"244","4",NA,"",NA,NA,FALSE,"digit_span","spatial_recall","","false","",NA,2335.59999999986,"[9, 11, 12, 8]","1042402",FALSE,858,"sr_main_response","",NA,4,1,45,11,"4",0,NA,0
"245","4",NA,"",NA,NA,FALSE,"digit_span","spatial_recall","","false","",NA,2163,"[15, 6, 7, 14]","1046727",FALSE,860,"sr_main_response","",NA,4,1,46,11,"4",0,NA,0
"246","4",NA,"",NA,NA,FALSE,"digit_span","spatial_recall","","false","",NA,1938.5,"[2, 4, 5, 15]","1050828",FALSE,862,"sr_main_response","",NA,4,1,47,11,"4",0,NA,0
"247","4",NA,"",NA,NA,FALSE,"digit_span","spatial_recall","","false","",NA,2708.90000000014,"[14, 2, 0, 5]","1055699",FALSE,864,"sr_main_response","",NA,4,1,48,11,"4",0,NA,0
"248","4",NA,"",NA,NA,FALSE,"digit_span","spatial_recall","","false","",NA,2665,"[12, 6, 4, 1]","1060536",FALSE,866,"sr_main_response","",NA,4,1,49,11,"4",0,NA,0
"249","4",NA,"",NA,NA,FALSE,"digit_span","spatial_recall","","false","",NA,2587.30000000005,"[15, 11, 1, 3]","1065286",FALSE,868,"sr_main_response","",NA,4,1,50,11,"4",0,NA,0
"250","4","2","False",NA,"2",FALSE,"digit_span","rest_task","","","2","0",NA,"","1069840",TRUE,870,"rt_main_trials","epoch_same_same",NA,4,0,140,NA,"4",0,11,17
"251","4","1","False",NA,"2",FALSE,"digit_span","rest_task","","","1","1",885,"","1071383",FALSE,871,"rt_main_trials","epoch_same_same",NA,4,1,141,NA,"4",0,11,17
"252","4","2","False",NA,"2",FALSE,"digit_span","rest_task","","","2","2",550,"","1072935",FALSE,872,"rt_main_trials","epoch_same_same",NA,4,1,142,NA,"4",0,11,17
"253","4","1","False",NA,"2",FALSE,"digit_span","rest_task","","","1","3",374,"","1074484",FALSE,873,"rt_main_trials","epoch_same_same",NA,4,1,143,NA,"4",0,11,17
"254","4","1","False",NA,"2",FALSE,"digit_span","rest_task","","","1","4",433,"","1076036",FALSE,874,"rt_main_trials","epoch_same_same",NA,4,1,144,NA,"4",0,11,17
"255","4","1","False",NA,"2",FALSE,"digit_span","rest_task","","","1","5",423,"","1077576",FALSE,875,"rt_main_trials","epoch_same_same",NA,4,1,145,NA,"4",0,11,17
"256","4","2","False",NA,"2",FALSE,"digit_span","rest_task","","","2","6",389,"","1079115",FALSE,876,"rt_main_trials","epoch_same_same",NA,4,1,146,NA,"4",0,11,17
"257","4","2","False",NA,"2",FALSE,"digit_span","rest_task","","","2","7",340,"","1080658",FALSE,877,"rt_main_trials","epoch_same_same",NA,4,1,147,NA,"4",0,11,17
"258","4","2","False",NA,"2",FALSE,"digit_span","rest_task","","","2","8",305,"","1082199",FALSE,878,"rt_main_trials","epoch_same_same",NA,4,1,148,NA,"4",0,11,17
"259","4","1","False",NA,"2",FALSE,"digit_span","rest_task","","","1","9",419,"","1083752",FALSE,879,"rt_main_trials","epoch_same_same",NA,4,1,149,NA,"4",0,11,17
"260","4","1","False",NA,"2",FALSE,"digit_span","rest_task","","","2","10",244,"","1085291",FALSE,880,"rt_main_trials","epoch_same_same",NA,4,1,150,NA,"4",0,11,17
"261","4","2","False",NA,"2",FALSE,"digit_span","rest_task","","","2","11",438,"","1086838",FALSE,881,"rt_main_trials","epoch_same_same",NA,4,1,151,NA,"4",0,11,17
"262","4","2","False",NA,"2",FALSE,"digit_span","rest_task","","","2","12",412,"","1088378",FALSE,882,"rt_main_trials","epoch_same_same",NA,4,1,152,NA,"4",0,11,17
"263","4","2","False",NA,"2",FALSE,"digit_span","rest_task","","","2","13",335,"","1089926",FALSE,883,"rt_main_trials","epoch_same_same",NA,4,1,153,NA,"4",0,11,17
"264","4","1","False",NA,"2",FALSE,"digit_span","rest_task","","","1","14",471,"","1091478",FALSE,884,"rt_main_trials","epoch_same_same",NA,4,1,154,NA,"4",0,11,17
"265","4","2","False",NA,"2",FALSE,"digit_span","rest_task","","","2","15",445,"","1093022",FALSE,885,"rt_main_trials","epoch_same_same",NA,4,1,155,NA,"4",0,11,17
"266","4","1","True",NA,"2",FALSE,"digit_span","rest_task","","","1","16",344,"","1094104",FALSE,886,"rt_main_trials","epoch_same_same",NA,4,1,156,NA,"4",0,11,17
"267","4",NA,"",NA,NA,FALSE,"digit_span","spatial_recall","","false","",NA,2829.59999999986,"[5, 7, 4, 6]","1100597",FALSE,889,"sr_main_response","",NA,4,1,51,12,"4",0,NA,0
"268","4",NA,"",NA,NA,FALSE,"digit_span","spatial_recall","","false","",NA,3161.89999999991,"[0, 10, 15, 8]","1105920",FALSE,891,"sr_main_response","",NA,4,1,52,12,"4",0,NA,0
"269","4",NA,"",NA,NA,FALSE,"digit_span","spatial_recall","","false","",NA,2021.29999999981,"[6, 14, 2, 13]","1110104",FALSE,893,"sr_main_response","",NA,4,1,53,12,"4",0,NA,0
"270","4",NA,"",NA,NA,FALSE,"digit_span","spatial_recall","","false","",NA,2046.19999999995,"[8, 12, 4, 1]","1114315",FALSE,895,"sr_main_response","",NA,4,1,54,12,"4",0,NA,0
"271","4",NA,"",NA,NA,FALSE,"digit_span","spatial_recall","","false","",NA,1944.10000000009,"[2, 6, 10, 9]","1118434",FALSE,897,"sr_main_response","",NA,4,1,55,12,"4",0,NA,0
"272","4",NA,"",NA,NA,FALSE,"digit_span","spatial_recall","","false","",NA,2678.39999999991,"[2, 6, 5, 8]","1123273",FALSE,899,"sr_main_response","",NA,4,1,56,12,"4",0,NA,0
"273","4",NA,"",NA,NA,FALSE,"digit_span","spatial_recall","","false","",NA,2163,"[6, 2, 5, 8]","1127611",FALSE,901,"sr_main_response","",NA,4,1,57,12,"4",0,NA,0
"274","4",NA,"",NA,NA,FALSE,"digit_span","spatial_recall","","false","",NA,2527.5,"[9, 15, 12, 1]","1132300",FALSE,903,"sr_main_response","",NA,4,1,58,12,"4",0,NA,0
"275","4",NA,"",NA,NA,FALSE,"digit_span","spatial_recall","","false","",NA,2309.5,"[3, 0, 2, 1]","1136773",FALSE,905,"sr_main_response","",NA,4,1,59,12,"4",0,NA,0
"276","4",NA,"",NA,NA,FALSE,"digit_span","spatial_recall","","false","",NA,2014,"[4, 6, 7, 13]","1140948",FALSE,907,"sr_main_response","",NA,4,1,60,12,"4",0,NA,0
"277","4","1","False","4","3",FALSE,"digit_span","rest_task","","","1","0",738,"","1145510",FALSE,909,"rt_main_trials","block_B_B",NA,4,1,157,NA,"4",0,12,20
"278","4","1","False","4","3",FALSE,"digit_span","rest_task","","","1","1",459,"","1147056",FALSE,910,"rt_main_trials","block_B_B",NA,4,1,158,NA,"4",0,12,20
"279","4","2","False","4","3",FALSE,"digit_span","rest_task","","","2","2",528,"","1148598",FALSE,911,"rt_main_trials","block_B_B",NA,4,1,159,NA,"4",0,12,20
"280","4","1","False","4","3",FALSE,"digit_span","rest_task","","","1","3",558,"","1150152",FALSE,912,"rt_main_trials","block_B_B",NA,4,1,160,NA,"4",0,12,20
"281","4","2","False","4","3",FALSE,"digit_span","rest_task","","","2","4",533,"","1151698",FALSE,913,"rt_main_trials","block_B_B",NA,4,1,161,NA,"4",0,12,20
"282","4","1","False","4","3",FALSE,"digit_span","rest_task","","","1","5",431,"","1153248",FALSE,914,"rt_main_trials","block_B_B",NA,4,1,162,NA,"4",0,12,20
"283","4","2","False","4","3",FALSE,"digit_span","rest_task","","","2","6",501,"","1154799",FALSE,915,"rt_main_trials","block_B_B",NA,4,1,163,NA,"4",0,12,20
"284","4","1","False","4","3",FALSE,"digit_span","rest_task","","","1","7",748,"","1156346",FALSE,916,"rt_main_trials","block_B_B",NA,4,1,164,NA,"4",0,12,20
"285","4","1","False","4","3",FALSE,"digit_span","rest_task","","","1","8",604,"","1157894",FALSE,917,"rt_main_trials","block_B_B",NA,4,1,165,NA,"4",0,12,20
"286","4","1","False","4","3",FALSE,"digit_span","rest_task","","","1","9",591,"","1159434",FALSE,918,"rt_main_trials","block_B_B",NA,4,1,166,NA,"4",0,12,20
"287","4","2","False","4","3",FALSE,"digit_span","rest_task","","","2","10",438,"","1160980",FALSE,919,"rt_main_trials","block_B_B",NA,4,1,167,NA,"4",0,12,20
"288","4","1","False","4","3",FALSE,"digit_span","rest_task","","","1","11",528,"","1162526",FALSE,920,"rt_main_trials","block_B_B",NA,4,1,168,NA,"4",0,12,20
"289","4","2","False","4","3",FALSE,"digit_span","rest_task","","","2","12",528,"","1164064",FALSE,921,"rt_main_trials","block_B_B",NA,4,1,169,NA,"4",0,12,20
"290","4","2","False","4","3",FALSE,"digit_span","rest_task","","","2","13",406,"","1165610",FALSE,922,"rt_main_trials","block_B_B",NA,4,1,170,NA,"4",0,12,20
"291","4","1","False","4","3",FALSE,"digit_span","rest_task","","","1","14",394,"","1167159",FALSE,923,"rt_main_trials","block_B_B",NA,4,1,171,NA,"4",0,12,20
"292","4","1","False","4","3",FALSE,"digit_span","rest_task","","","1","15",365,"","1168708",FALSE,924,"rt_main_trials","block_B_B",NA,4,1,172,NA,"4",0,12,20
"293","4","1","False","4","3",FALSE,"digit_span","rest_task","","","1","16",368,"","1170262",FALSE,925,"rt_main_trials","block_B_B",NA,4,1,173,NA,"4",0,12,20
"294","4","2","False","4","3",FALSE,"digit_span","rest_task","","","2","17",632,"","1171811",FALSE,926,"rt_main_trials","block_B_B",NA,4,1,174,NA,"4",0,12,20
"295","4","2","False","4","3",FALSE,"digit_span","rest_task","","","2","18",510,"","1173355",FALSE,927,"rt_main_trials","block_B_B",NA,4,1,175,NA,"4",0,12,20
"296","4","1","False","4","3",FALSE,"digit_span","rest_task","","","1","19",479,"","1174902",FALSE,928,"rt_main_trials","block_B_B",NA,4,1,176,NA,"4",0,12,20
"297","4",NA,"",NA,NA,FALSE,"digit_span","spatial_recall","","false","",NA,2946.5,"[13, 7, 12, 14]","1181527",FALSE,931,"sr_main_response","",NA,4,1,61,13,"5",0,NA,0
"298","4",NA,"",NA,NA,FALSE,"digit_span","spatial_recall","","false","",NA,2288.20000000019,"[8, 12, 13, 3]","1185977",FALSE,933,"sr_main_response","",NA,4,1,62,13,"5",0,NA,0
"299","4",NA,"",NA,NA,FALSE,"digit_span","spatial_recall","","false","",NA,1847,"[11, 15, 7, 10]","1189987",FALSE,935,"sr_main_response","",NA,4,1,63,13,"5",0,NA,0
"300","4",NA,"",NA,NA,FALSE,"digit_span","spatial_recall","","false","",NA,2380.5,"[13, 6, 15, 2]","1194530",FALSE,937,"sr_main_response","",NA,4,1,64,13,"5",0,NA,0
"301","4",NA,"",NA,NA,FALSE,"digit_span","spatial_recall","","false","",NA,2112.30000000005,"[9, 14, 8, 11]","1198803",FALSE,939,"sr_main_response","",NA,4,1,65,13,"5",0,NA,0
"302","4",NA,"",NA,NA,FALSE,"digit_span","spatial_recall","","false","",NA,NA,"[0, 5, 11, 3]","1205165",TRUE,941,"sr_main_response","",NA,4,0,66,13,"5",0,NA,0
"303","4",NA,"",NA,NA,FALSE,"digit_span","spatial_recall","","false","",NA,2462.5,"[13, 0, 1, 4]","1209789",FALSE,943,"sr_main_response","",NA,4,1,67,13,"5",0,NA,0
"304","4",NA,"",NA,NA,FALSE,"digit_span","spatial_recall","","false","",NA,2114.89999999991,"[11, 6, 3, 7]","1214081",FALSE,945,"sr_main_response","",NA,4,1,68,13,"5",0,NA,0
"305","4",NA,"",NA,NA,FALSE,"digit_span","spatial_recall","","false","",NA,2336.69999999995,"[13, 0, 4, 10]","1218582",FALSE,947,"sr_main_response","",NA,4,1,69,13,"5",0,NA,0
"306","4",NA,"",NA,NA,FALSE,"digit_span","spatial_recall","","false","",NA,2114.39999999991,"[11, 7, 8, 14]","1222859",FALSE,949,"sr_main_response","",NA,4,1,70,13,"5",0,NA,0
"307","4","2","False",NA,"1",FALSE,"digit_span","rest_task","","","2","0",836,"","1227410",FALSE,951,"rt_main_trials","epoch_same_same",NA,4,1,177,NA,"5",0,13,14
"308","4","2","False",NA,"1",FALSE,"digit_span","rest_task","","","2","1",586,"","1228951",FALSE,952,"rt_main_trials","epoch_same_same",NA,4,1,178,NA,"5",0,13,14
"309","4","1","False",NA,"1",FALSE,"digit_span","rest_task","","","1","2",857,"","1230492",FALSE,953,"rt_main_trials","epoch_same_same",NA,4,1,179,NA,"5",0,13,14
"310","4","2","False",NA,"1",FALSE,"digit_span","rest_task","","","2","3",616,"","1232027",FALSE,954,"rt_main_trials","epoch_same_same",NA,4,1,180,NA,"5",0,13,14
"311","4","1","False",NA,"1",FALSE,"digit_span","rest_task","","","1","4",522,"","1233571",FALSE,955,"rt_main_trials","epoch_same_same",NA,4,1,181,NA,"5",0,13,14
"312","4","1","False",NA,"1",FALSE,"digit_span","rest_task","","","1","5",441,"","1235118",FALSE,956,"rt_main_trials","epoch_same_same",NA,4,1,182,NA,"5",0,13,14
"313","4","1","False",NA,"1",FALSE,"digit_span","rest_task","","","1","6",486,"","1236656",FALSE,957,"rt_main_trials","epoch_same_same",NA,4,1,183,NA,"5",0,13,14
"314","4","2","False",NA,"1",FALSE,"digit_span","rest_task","","","2","7",686,"","1238205",FALSE,958,"rt_main_trials","epoch_same_same",NA,4,1,184,NA,"5",0,13,14
"315","4","1","False",NA,"1",FALSE,"digit_span","rest_task","","","1","8",746,"","1239744",FALSE,959,"rt_main_trials","epoch_same_same",NA,4,1,185,NA,"5",0,13,14
"316","4","2","False",NA,"1",FALSE,"digit_span","rest_task","","","2","9",721,"","1241291",FALSE,960,"rt_main_trials","epoch_same_same",NA,4,1,186,NA,"5",0,13,14
"317","4","2","False",NA,"1",FALSE,"digit_span","rest_task","","","2","10",753,"","1242838",FALSE,961,"rt_main_trials","epoch_same_same",NA,4,1,187,NA,"5",0,13,14
"318","4","1","False",NA,"1",FALSE,"digit_span","rest_task","","","1","11",463,"","1244383",FALSE,962,"rt_main_trials","epoch_same_same",NA,4,1,188,NA,"5",0,13,14
"319","4","2","False",NA,"1",FALSE,"digit_span","rest_task","","","2","12",521,"","1245912",FALSE,963,"rt_main_trials","epoch_same_same",NA,4,1,189,NA,"5",0,13,14
"320","4","1","True",NA,"1",FALSE,"digit_span","rest_task","","","1","13",609,"","1246892",FALSE,964,"rt_main_trials","epoch_same_same",NA,4,1,190,NA,"5",0,13,14
"321","4",NA,"",NA,NA,FALSE,"digit_span","spatial_recall","","false","",NA,NA,"[7, 0, 8, 11]","1254771",TRUE,967,"sr_main_response","",NA,4,0,71,14,"5",0,NA,0
"322","4",NA,"",NA,NA,FALSE,"digit_span","spatial_recall","","false","",NA,2230.19999999995,"[11, 7, 0, 12]","1259162",FALSE,969,"sr_main_response","",NA,4,1,72,14,"5",0,NA,0
"323","4",NA,"",NA,NA,FALSE,"digit_span","spatial_recall","","false","",NA,1810.69999999995,"[8, 9, 1, 2]","1263145",FALSE,971,"sr_main_response","",NA,4,1,73,14,"5",0,NA,0
"324","4",NA,"",NA,NA,FALSE,"digit_span","spatial_recall","","false","",NA,2290.30000000005,"[7, 3, 12, 15]","1267597",FALSE,973,"sr_main_response","",NA,4,1,74,14,"5",0,NA,0
"325","4",NA,"",NA,NA,FALSE,"digit_span","spatial_recall","","false","",NA,2313.69999999995,"[9, 15, 13, 4]","1272073",FALSE,975,"sr_main_response","",NA,4,1,75,14,"5",0,NA,0
"326","4",NA,"",NA,NA,FALSE,"digit_span","spatial_recall","","false","",NA,1848.19999999995,"[0, 5, 10, 9]","1276088",FALSE,977,"sr_main_response","",NA,4,1,76,14,"5",0,NA,0
"327","4",NA,"",NA,NA,FALSE,"digit_span","spatial_recall","","false","",NA,2294.80000000005,"[14, 8, 1, 9]","1280557",FALSE,979,"sr_main_response","",NA,4,1,77,14,"5",0,NA,0
"328","4",NA,"",NA,NA,FALSE,"digit_span","spatial_recall","","false","",NA,2210.19999999995,"[14, 3, 9, 5]","1284928",FALSE,981,"sr_main_response","",NA,4,1,78,14,"5",0,NA,0
"329","4",NA,"",NA,NA,FALSE,"digit_span","spatial_recall","","false","",NA,1899.30000000005,"[12, 8, 15, 9]","1288991",FALSE,983,"sr_main_response","",NA,4,1,79,14,"5",0,NA,0
"330","4",NA,"",NA,NA,FALSE,"digit_span","spatial_recall","","false","",NA,2362.30000000005,"[10, 5, 15, 0]","1293516",FALSE,985,"sr_main_response","",NA,4,1,80,14,"5",0,NA,0
"331","4","2","False",NA,"2",FALSE,"digit_span","rest_task","","","2","0",1219,"","1298059",FALSE,987,"rt_main_trials","epoch_same_same",NA,4,1,191,NA,"5",0,14,20
"332","4","1","False",NA,"2",FALSE,"digit_span","rest_task","","","1","1",408,"","1299604",FALSE,988,"rt_main_trials","epoch_same_same",NA,4,1,192,NA,"5",0,14,20
"333","4","2","False",NA,"2",FALSE,"digit_span","rest_task","","","2","2",433,"","1301145",FALSE,989,"rt_main_trials","epoch_same_same",NA,4,1,193,NA,"5",0,14,20
"334","4","1","False",NA,"2",FALSE,"digit_span","rest_task","","","1","3",473,"","1302684",FALSE,990,"rt_main_trials","epoch_same_same",NA,4,1,194,NA,"5",0,14,20
"335","4","1","False",NA,"2",FALSE,"digit_span","rest_task","","","1","4",421,"","1304232",FALSE,991,"rt_main_trials","epoch_same_same",NA,4,1,195,NA,"5",0,14,20
"336","4","1","False",NA,"2",FALSE,"digit_span","rest_task","","","1","5",485,"","1305778",FALSE,992,"rt_main_trials","epoch_same_same",NA,4,1,196,NA,"5",0,14,20
"337","4","2","False",NA,"2",FALSE,"digit_span","rest_task","","","2","6",539,"","1307323",FALSE,993,"rt_main_trials","epoch_same_same",NA,4,1,197,NA,"5",0,14,20
"338","4","2","False",NA,"2",FALSE,"digit_span","rest_task","","","2","7",331,"","1308862",FALSE,994,"rt_main_trials","epoch_same_same",NA,4,1,198,NA,"5",0,14,20
"339","4","2","False",NA,"2",FALSE,"digit_span","rest_task","","","2","8",413,"","1310410",FALSE,995,"rt_main_trials","epoch_same_same",NA,4,1,199,NA,"5",0,14,20
"340","4","1","False",NA,"2",FALSE,"digit_span","rest_task","","","1","9",540,"","1311951",FALSE,996,"rt_main_trials","epoch_same_same",NA,4,1,200,NA,"5",0,14,20
"341","4","1","False",NA,"2",FALSE,"digit_span","rest_task","","","1","10",428,"","1313490",FALSE,997,"rt_main_trials","epoch_same_same",NA,4,1,201,NA,"5",0,14,20
"342","4","2","False",NA,"2",FALSE,"digit_span","rest_task","","","2","11",589,"","1315030",FALSE,998,"rt_main_trials","epoch_same_same",NA,4,1,202,NA,"5",0,14,20
"343","4","2","False",NA,"2",FALSE,"digit_span","rest_task","","","2","12",430,"","1316574",FALSE,999,"rt_main_trials","epoch_same_same",NA,4,1,203,NA,"5",0,14,20
"344","4","2","False",NA,"2",FALSE,"digit_span","rest_task","","","2","13",479,"","1318115",FALSE,1000,"rt_main_trials","epoch_same_same",NA,4,1,204,NA,"5",0,14,20
"345","4","1","False",NA,"2",FALSE,"digit_span","rest_task","","","1","14",572,"","1319662",FALSE,1001,"rt_main_trials","epoch_same_same",NA,4,1,205,NA,"5",0,14,20
"346","4","2","False",NA,"2",FALSE,"digit_span","rest_task","","","2","15",582,"","1321218",FALSE,1002,"rt_main_trials","epoch_same_same",NA,4,1,206,NA,"5",0,14,20
"347","4","1","False",NA,"2",FALSE,"digit_span","rest_task","","","1","16",633,"","1322756",FALSE,1003,"rt_main_trials","epoch_same_same",NA,4,1,207,NA,"5",0,14,20
"348","4","2","False",NA,"2",FALSE,"digit_span","rest_task","","","2","17",537,"","1324298",FALSE,1004,"rt_main_trials","epoch_same_same",NA,4,1,208,NA,"5",0,14,20
"349","4","1","False",NA,"2",FALSE,"digit_span","rest_task","","","1","18",566,"","1325844",FALSE,1005,"rt_main_trials","epoch_same_same",NA,4,1,209,NA,"5",0,14,20
"350","4","1","False",NA,"2",FALSE,"digit_span","rest_task","","","1","19",441,"","1327383",FALSE,1006,"rt_main_trials","epoch_same_same",NA,4,1,210,NA,"5",0,14,20
"351","4",NA,"",NA,NA,FALSE,"digit_span","spatial_recall","","false","",NA,2390.39999999991,"[6, 1, 2, 13]","1333437",FALSE,1009,"sr_main_response","",NA,4,1,81,15,"5",0,NA,0
"352","4",NA,"",NA,NA,FALSE,"digit_span","spatial_recall","","false","",NA,1934.89999999991,"[6, 7, 1, 5]","1337535",FALSE,1011,"sr_main_response","",NA,4,1,82,15,"5",0,NA,0
"353","4",NA,"",NA,NA,FALSE,"digit_span","spatial_recall","","false","",NA,1935.19999999995,"[9, 5, 7, 3]","1341632",FALSE,1013,"sr_main_response","",NA,4,1,83,15,"5",0,NA,0
"354","4",NA,"",NA,NA,FALSE,"digit_span","spatial_recall","","false","",NA,2156.5,"[12, 11, 2, 3]","1345952",FALSE,1015,"sr_main_response","",NA,4,1,84,15,"5",0,NA,0
"355","4",NA,"",NA,NA,FALSE,"digit_span","spatial_recall","","false","",NA,2433.39999999991,"[0, 10, 4, 15]","1350548",FALSE,1017,"sr_main_response","",NA,4,1,85,15,"5",0,NA,0
"356","4",NA,"",NA,NA,FALSE,"digit_span","spatial_recall","","false","",NA,2203.90000000014,"[0, 9, 10, 2]","1354915",FALSE,1019,"sr_main_response","",NA,4,1,86,15,"5",0,NA,0
"357","4",NA,"",NA,NA,FALSE,"digit_span","spatial_recall","","false","",NA,2099.89999999991,"[14, 7, 8, 5]","1359177",FALSE,1021,"sr_main_response","",NA,4,1,87,15,"5",0,NA,0
"358","4",NA,"",NA,NA,FALSE,"digit_span","spatial_recall","","false","",NA,2214.90000000014,"[3, 4, 10, 9]","1363557",FALSE,1023,"sr_main_response","",NA,4,1,88,15,"5",0,NA,0
"359","4",NA,"",NA,NA,FALSE,"digit_span","spatial_recall","","false","",NA,2943.19999999995,"[10, 13, 14, 15]","1368667",FALSE,1025,"sr_main_response","",NA,4,1,89,15,"5",0,NA,0
"360","4",NA,"",NA,NA,FALSE,"digit_span","spatial_recall","","false","",NA,2289.39999999991,"[0, 13, 8, 5]","1373122",FALSE,1027,"sr_main_response","",NA,4,1,90,15,"5",0,NA,0
"361","4","1","False","5","6",FALSE,"digit_span","rest_task","","","1","0",666,"","1377678",FALSE,1029,"rt_main_trials","block_B_A",NA,4,1,211,NA,"5",0,15,20
"362","4","1","False","5","6",FALSE,"digit_span","rest_task","","","1","1",701,"","1379216",FALSE,1030,"rt_main_trials","block_B_A",NA,4,1,212,NA,"5",0,15,20
"363","4","1","False","5","6",FALSE,"digit_span","rest_task","","","1","2",793,"","1380767",FALSE,1031,"rt_main_trials","block_B_A",NA,4,1,213,NA,"5",0,15,20
"364","4","1","False","5","6",FALSE,"digit_span","rest_task","","","1","3",488,"","1382315",FALSE,1032,"rt_main_trials","block_B_A",NA,4,1,214,NA,"5",0,15,20
"365","4","1","False","5","6",FALSE,"digit_span","rest_task","","","1","4",485,"","1383854",FALSE,1033,"rt_main_trials","block_B_A",NA,4,1,215,NA,"5",0,15,20
"366","4","1","False","5","6",FALSE,"digit_span","rest_task","","","1","5",246,"","1385406",FALSE,1034,"rt_main_trials","block_B_A",NA,4,1,216,NA,"5",0,15,20
"367","4","1","False","5","6",FALSE,"digit_span","rest_task","","","1","6",308,"","1386955",FALSE,1035,"rt_main_trials","block_B_A",NA,4,1,217,NA,"5",0,15,20
"368","4","1","False","5","6",FALSE,"digit_span","rest_task","","","1","7",239,"","1388509",FALSE,1036,"rt_main_trials","block_B_A",NA,4,1,218,NA,"5",0,15,20
"369","4","1","False","5","6",FALSE,"digit_span","rest_task","","","","8",NA,"","1390049",TRUE,1037,"rt_main_trials","block_B_A",NA,4,0,219,NA,"5",0,15,20
"370","4","2","False","5","6",FALSE,"digit_span","rest_task","","","2","9",422,"","1391599",FALSE,1038,"rt_main_trials","block_B_A",NA,4,1,220,NA,"5",0,15,20
"371","4","2","False","5","6",FALSE,"digit_span","rest_task","","","2","10",528,"","1393146",FALSE,1039,"rt_main_trials","block_B_A",NA,4,1,221,NA,"5",0,15,20
"372","4","2","False","5","6",FALSE,"digit_span","rest_task","","","2","11",416,"","1394684",FALSE,1040,"rt_main_trials","block_B_A",NA,4,1,222,NA,"5",0,15,20
"373","4","2","False","5","6",FALSE,"digit_span","rest_task","","","2","12",329,"","1396233",FALSE,1041,"rt_main_trials","block_B_A",NA,4,1,223,NA,"5",0,15,20
"374","4","2","False","5","6",FALSE,"digit_span","rest_task","","","2","13",392,"","1397775",FALSE,1042,"rt_main_trials","block_B_A",NA,4,1,224,NA,"5",0,15,20
"375","4","1","False","5","6",FALSE,"digit_span","rest_task","","","1","14",689,"","1399321",FALSE,1043,"rt_main_trials","block_B_A",NA,4,1,225,NA,"5",0,15,20
"376","4","1","False","5","6",FALSE,"digit_span","rest_task","","","1","15",414,"","1400862",FALSE,1044,"rt_main_trials","block_B_A",NA,4,1,226,NA,"5",0,15,20
"377","4","2","False","5","6",FALSE,"digit_span","rest_task","","","2","16",482,"","1402411",FALSE,1045,"rt_main_trials","block_B_A",NA,4,1,227,NA,"5",0,15,20
"378","4","2","False","5","6",FALSE,"digit_span","rest_task","","","2","17",392,"","1403962",FALSE,1046,"rt_main_trials","block_B_A",NA,4,1,228,NA,"5",0,15,20
"379","4","1","False","5","6",FALSE,"digit_span","rest_task","","","1","18",404,"","1405507",FALSE,1047,"rt_main_trials","block_B_A",NA,4,1,229,NA,"5",0,15,20
"380","4","1","False","5","6",FALSE,"digit_span","rest_task","","","1","19",345,"","1407053",FALSE,1048,"rt_main_trials","block_B_A",NA,4,1,230,NA,"5",0,15,20
"381","4",NA,"",NA,NA,FALSE,"digit_span","digit_span","","False","[]",NA,NA,"[2, 7, 7, 3]","1414718",TRUE,1058,"ds_main_response","",NA,4,0,61,16,"6",0,NA,0
"382","4",NA,"",NA,NA,FALSE,"digit_span","digit_span","","False","[0, 4, 8, 6]",NA,2917.5,"[0, 4, 8, 6]","1419573",FALSE,1067,"ds_main_response","",NA,4,1,62,16,"6",0,NA,0
"383","4",NA,"",NA,NA,FALSE,"digit_span","digit_span","","False","[3, 3, 4, 0]",NA,1768.29999999981,"[3, 3, 4, 0]","1423267",FALSE,1076,"ds_main_response","",NA,4,1,63,16,"6",0,NA,0
"384","4",NA,"",NA,NA,FALSE,"digit_span","digit_span","","False","[2, 5, 8, 9]",NA,2074.80000000005,"[2, 5, 8, 9]","1427299",FALSE,1085,"ds_main_response","",NA,4,1,64,16,"6",0,NA,0
"385","4",NA,"",NA,NA,FALSE,"digit_span","digit_span","","False","[4, 5, 5, 2]",NA,1765.5,"[4, 5, 5, 2]","1431002",FALSE,1094,"ds_main_response","",NA,4,1,65,16,"6",0,NA,0
"386","4",NA,"",NA,NA,FALSE,"digit_span","digit_span","","False","[8, 3, 2, 3]",NA,2475.59999999986,"[8, 3, 2, 3]","1435431",FALSE,1103,"ds_main_response","",NA,4,1,66,16,"6",0,NA,0
"387","4",NA,"",NA,NA,FALSE,"digit_span","digit_span","","False","[3, 3, 2, 5]",NA,2180.80000000005,"[3, 3, 2, 5]","1439543",FALSE,1112,"ds_main_response","",NA,4,1,67,16,"6",0,NA,0
"388","4",NA,"",NA,NA,FALSE,"digit_span","digit_span","","False","[0, 0, 9, 8]",NA,2287.10000000009,"[0, 0, 9, 8]","1443758",FALSE,1121,"ds_main_response","",NA,4,1,68,16,"6",0,NA,0
"389","4",NA,"",NA,NA,FALSE,"digit_span","digit_span","","False","[1, 9, 5, 5]",NA,1920.70000000019,"[1, 9, 5, 5]","1447621",FALSE,1130,"ds_main_response","",NA,4,1,69,16,"6",0,NA,0
"390","4",NA,"",NA,NA,FALSE,"digit_span","digit_span","","False","[0, 7, 8, 8]",NA,1793.89999999991,"[0, 7, 8, 8]","1451374",FALSE,1139,"ds_main_response","",NA,4,1,70,16,"6",0,NA,0
"391","4","2","False",NA,"1",FALSE,"digit_span","rest_task","","","2","0",803,"","1455916",FALSE,1141,"rt_main_trials","epoch_same_same",NA,4,1,231,NA,"6",0,16,4
"392","4","2","False",NA,"1",FALSE,"digit_span","rest_task","","","2","1",517,"","1457451",FALSE,1142,"rt_main_trials","epoch_same_same",NA,4,1,232,NA,"6",0,16,4
"393","4","2","False",NA,"1",FALSE,"digit_span","rest_task","","","2","2",527,"","1459003",FALSE,1143,"rt_main_trials","epoch_same_same",NA,4,1,233,NA,"6",0,16,4
"394","4","2","True",NA,"1",FALSE,"digit_span","rest_task","","","","3",NA,"","1460169",TRUE,1144,"rt_main_trials","epoch_same_same",NA,4,0,234,NA,"6",0,16,4
"395","4",NA,"",NA,NA,FALSE,"digit_span","digit_span","","False","[]",NA,NA,"[6, 2, 8, 6]","1467808",TRUE,1154,"ds_main_response","",NA,4,0,71,17,"6",0,NA,0
"396","4",NA,"",NA,NA,FALSE,"digit_span","digit_span","","False","[4, 1, 2, 9]",NA,2212.40000000014,"[4, 1, 2, 9]","1471953",FALSE,1163,"ds_main_response","",NA,4,1,72,17,"6",0,NA,0
"397","4",NA,"",NA,NA,FALSE,"digit_span","digit_span","","False","[3, 3, 4, 8]",NA,2187.80000000005,"[3, 3, 4, 8]","1476091",FALSE,1172,"ds_main_response","",NA,4,1,73,17,"6",0,NA,0
"398","4",NA,"",NA,NA,FALSE,"digit_span","digit_span","","False","[2, 6, 7, 7]",NA,2205.80000000005,"[2, 6, 7, 7]","1480231",FALSE,1181,"ds_main_response","",NA,4,1,74,17,"6",0,NA,0
"399","4",NA,"",NA,NA,FALSE,"digit_span","digit_span","","False","[6, 8, 9, 7]",NA,2549.40000000014,"[6, 8, 9, 7]","1484727",FALSE,1190,"ds_main_response","",NA,4,1,75,17,"6",0,NA,0
"400","4",NA,"",NA,NA,FALSE,"digit_span","digit_span","","False","[0, 6, 5, 8]",NA,2375.80000000005,"[0, 6, 5, 8]","1489041",FALSE,1199,"ds_main_response","",NA,4,1,76,17,"6",0,NA,0
"401","4",NA,"",NA,NA,FALSE,"digit_span","digit_span","","False","[3, 4, 6, 7]",NA,2453.80000000005,"[3, 4, 6, 7]","1493457",FALSE,1208,"ds_main_response","",NA,4,1,77,17,"6",0,NA,0
"402","4",NA,"",NA,NA,FALSE,"digit_span","digit_span","","False","[4, 9, 1, 9]",NA,2818.89999999991,"[4, 9, 1, 9]","1498235",FALSE,1217,"ds_main_response","",NA,4,1,78,17,"6",0,NA,0
"403","4",NA,"",NA,NA,FALSE,"digit_span","digit_span","","False","[9, 7, 5, 9]",NA,2208.10000000009,"[9, 7, 5, 9]","1502399",FALSE,1226,"ds_main_response","",NA,4,1,79,17,"6",0,NA,0
"404","4",NA,"",NA,NA,FALSE,"digit_span","digit_span","","False","[2, 6, 0, 9]",NA,2022,"[2, 6, 0, 9]","1506361",FALSE,1235,"ds_main_response","",NA,4,1,80,17,"6",0,NA,0
"405","4","2","False",NA,"2",FALSE,"digit_span","rest_task","","","2","0",1209,"","1510920",FALSE,1237,"rt_main_trials","epoch_same_same",NA,4,1,235,NA,"6",0,17,13
"406","4","2","False",NA,"2",FALSE,"digit_span","rest_task","","","2","1",554,"","1512457",FALSE,1238,"rt_main_trials","epoch_same_same",NA,4,1,236,NA,"6",0,17,13
"407","4","2","False",NA,"2",FALSE,"digit_span","rest_task","","","2","2",382,"","1513996",FALSE,1239,"rt_main_trials","epoch_same_same",NA,4,1,237,NA,"6",0,17,13
"408","4","1","False",NA,"2",FALSE,"digit_span","rest_task","","","1","3",549,"","1515546",FALSE,1240,"rt_main_trials","epoch_same_same",NA,4,1,238,NA,"6",0,17,13
"409","4","1","False",NA,"2",FALSE,"digit_span","rest_task","","","1","4",677,"","1517091",FALSE,1241,"rt_main_trials","epoch_same_same",NA,4,1,239,NA,"6",0,17,13
"410","4","2","False",NA,"2",FALSE,"digit_span","rest_task","","","2","5",1124,"","1518644",FALSE,1242,"rt_main_trials","epoch_same_same",NA,4,1,240,NA,"6",0,17,13
"411","4","1","False",NA,"2",FALSE,"digit_span","rest_task","","","1","6",796,"","1520183",FALSE,1243,"rt_main_trials","epoch_same_same",NA,4,1,241,NA,"6",0,17,13
"412","4","1","False",NA,"2",FALSE,"digit_span","rest_task","","","1","7",662,"","1521731",FALSE,1244,"rt_main_trials","epoch_same_same",NA,4,1,242,NA,"6",0,17,13
"413","4","1","False",NA,"2",FALSE,"digit_span","rest_task","","","1","8",694,"","1523271",FALSE,1245,"rt_main_trials","epoch_same_same",NA,4,1,243,NA,"6",0,17,13
"414","4","1","False",NA,"2",FALSE,"digit_span","rest_task","","","1","9",886,"","1524814",FALSE,1246,"rt_main_trials","epoch_same_same",NA,4,1,244,NA,"6",0,17,13
"415","4","1","False",NA,"2",FALSE,"digit_span","rest_task","","","1","10",492,"","1526360",FALSE,1247,"rt_main_trials","epoch_same_same",NA,4,1,245,NA,"6",0,17,13
"416","4","2","False",NA,"2",FALSE,"digit_span","rest_task","","","2","11",477,"","1527887",FALSE,1248,"rt_main_trials","epoch_same_same",NA,4,1,246,NA,"6",0,17,13
"417","4","1","True",NA,"2",FALSE,"digit_span","rest_task","","","","12",NA,"","1528385",TRUE,1249,"rt_main_trials","epoch_same_same",NA,4,0,247,NA,"6",0,17,13
"418","4",NA,"",NA,NA,FALSE,"digit_span","digit_span","","False","[6, 6, 1, 1]",NA,1888.90000000014,"[6, 6, 1, 1]","1533705",FALSE,1259,"ds_main_response","",NA,4,1,81,18,"6",0,NA,0
"419","4",NA,"",NA,NA,FALSE,"digit_span","digit_span","","False","[4, 1, 4, 9]",NA,1698.39999999991,"[4, 1, 9, 4]","1537338",FALSE,1268,"ds_main_response","",NA,4,1,82,18,"6",0,NA,0
"420","4",NA,"",NA,NA,FALSE,"digit_span","digit_span","","False","[8, 4, 0, 7]",NA,2155.59999999986,"[8, 4, 0, 7]","1541423",FALSE,1277,"ds_main_response","",NA,4,1,83,18,"6",0,NA,0
"421","4",NA,"",NA,NA,FALSE,"digit_span","digit_span","","False","[0, 3, 4, 4]",NA,2284.39999999991,"[0, 3, 4, 4]","1545668",FALSE,1286,"ds_main_response","",NA,4,1,84,18,"6",0,NA,0
"422","4",NA,"",NA,NA,FALSE,"digit_span","digit_span","","False","[3, 3, 6, 5]",NA,1657.60000000009,"[3, 3, 6, 5]","1549270",FALSE,1295,"ds_main_response","",NA,4,1,85,18,"6",0,NA,0
"423","4",NA,"",NA,NA,FALSE,"digit_span","digit_span","","False","[7, 8, 8, 7]",NA,2072.39999999991,"[7, 8, 8, 7]","1553297",FALSE,1304,"ds_main_response","",NA,4,1,86,18,"6",0,NA,0
"424","4",NA,"",NA,NA,FALSE,"digit_span","digit_span","","False","[2, 9, 2, 8]",NA,2306.30000000005,"[2, 9, 2, 8]","1557553",FALSE,1313,"ds_main_response","",NA,4,1,87,18,"6",0,NA,0
"425","4",NA,"",NA,NA,FALSE,"digit_span","digit_span","","False","[6, 7, 3, 2]",NA,2684.5,"[6, 7, 3, 2]","1562170",FALSE,1322,"ds_main_response","",NA,4,1,88,18,"6",0,NA,0
"426","4",NA,"",NA,NA,FALSE,"digit_span","digit_span","","False","[7, 4, 3, 4]",NA,2655.09999999986,"[7, 4, 3, 4]","1566769",FALSE,1331,"ds_main_response","",NA,4,1,89,18,"6",0,NA,0
"427","4",NA,"",NA,NA,FALSE,"digit_span","digit_span","","False","[4, 0, 3, 3]",NA,2171.39999999991,"[4, 0, 3, 3]","1570876",FALSE,1340,"ds_main_response","",NA,4,1,90,18,"6",0,NA,0
"428","4","2","False","6","3",FALSE,"digit_span","rest_task","","","2","0",1011,"","1575415",FALSE,1342,"rt_main_trials","block_A_B",NA,4,1,248,NA,"6",0,18,6
"429","4","1","False","6","3",FALSE,"digit_span","rest_task","","","1","1",471,"","1576953",FALSE,1343,"rt_main_trials","block_A_B",NA,4,1,249,NA,"6",0,18,6
"430","4","2","False","6","3",FALSE,"digit_span","rest_task","","","2","2",623,"","1578499",FALSE,1344,"rt_main_trials","block_A_B",NA,4,1,250,NA,"6",0,18,6
"431","4","1","False","6","3",FALSE,"digit_span","rest_task","","","1","3",529,"","1580049",FALSE,1345,"rt_main_trials","block_A_B",NA,4,1,251,NA,"6",0,18,6
"432","4","1","False","6","3",FALSE,"digit_span","rest_task","","","1","4",606,"","1581580",FALSE,1346,"rt_main_trials","block_A_B",NA,4,1,252,NA,"6",0,18,6
"433","4","1","True","6","3",FALSE,"digit_span","rest_task","","","","5",NA,"","1581964",TRUE,1347,"rt_main_trials","block_A_B",NA,4,0,253,NA,"6",0,18,6
"434","4",NA,"",NA,NA,FALSE,"digit_span","spatial_recall","","false","",NA,2493.40000000014,"[7, 9, 5, 13]","1588129",FALSE,1350,"sr_main_response","",NA,4,1,91,19,"7",0,NA,0
"435","4",NA,"",NA,NA,FALSE,"digit_span","spatial_recall","","false","",NA,2357.40000000014,"[10, 6, 4, 7]","1592652",FALSE,1352,"sr_main_response","",NA,4,1,92,19,"7",0,NA,0
"436","4",NA,"",NA,NA,FALSE,"digit_span","spatial_recall","","false","",NA,2394.10000000009,"[3, 10, 15, 4]","1597210",FALSE,1354,"sr_main_response","",NA,4,1,93,19,"7",0,NA,0
"437","4",NA,"",NA,NA,FALSE,"digit_span","spatial_recall","","false","",NA,2362.60000000009,"[4, 11, 2, 7]","1601747",FALSE,1356,"sr_main_response","",NA,4,1,94,19,"7",0,NA,0
"438","4",NA,"",NA,NA,FALSE,"digit_span","spatial_recall","","false","",NA,2056.10000000009,"[8, 14, 12, 9]","1605966",FALSE,1358,"sr_main_response","",NA,4,1,95,19,"7",0,NA,0
"439","4",NA,"",NA,NA,FALSE,"digit_span","spatial_recall","","false","",NA,2068.20000000019,"[13, 15, 9, 6]","1610197",FALSE,1360,"sr_main_response","",NA,4,1,96,19,"7",0,NA,0
"440","4",NA,"",NA,NA,FALSE,"digit_span","spatial_recall","","false","",NA,2032.5,"[9, 13, 4, 8]","1614399",FALSE,1362,"sr_main_response","",NA,4,1,97,19,"7",0,NA,0
"441","4",NA,"",NA,NA,FALSE,"digit_span","spatial_recall","","false","",NA,2162.60000000009,"[6, 8, 1, 12]","1618723",FALSE,1364,"sr_main_response","",NA,4,1,98,19,"7",0,NA,0
"442","4",NA,"",NA,NA,FALSE,"digit_span","spatial_recall","","false","",NA,2272.20000000019,"[7, 3, 0, 11]","1623161",FALSE,1366,"sr_main_response","",NA,4,1,99,19,"7",0,NA,0
"443","4",NA,"",NA,NA,FALSE,"digit_span","spatial_recall","","false","",NA,2364.09999999986,"[15, 3, 8, 2]","1627687",FALSE,1368,"sr_main_response","",NA,4,1,100,19,"7",0,NA,0
"444","4","2","False",NA,"1",FALSE,"digit_span","rest_task","","","2","0",1226,"","1632249",FALSE,1370,"rt_main_trials","epoch_same_same",NA,4,1,254,NA,"7",0,19,6
"445","4","2","False",NA,"1",FALSE,"digit_span","rest_task","","","2","1",563,"","1633787",FALSE,1371,"rt_main_trials","epoch_same_same",NA,4,1,255,NA,"7",0,19,6
"446","4","1","False",NA,"1",FALSE,"digit_span","rest_task","","","1","2",645,"","1635326",FALSE,1372,"rt_main_trials","epoch_same_same",NA,4,1,256,NA,"7",0,19,6
"447","4","2","False",NA,"1",FALSE,"digit_span","rest_task","","","2","3",530,"","1636876",FALSE,1373,"rt_main_trials","epoch_same_same",NA,4,1,257,NA,"7",0,19,6
"448","4","1","False",NA,"1",FALSE,"digit_span","rest_task","","","1","4",520,"","1638425",FALSE,1374,"rt_main_trials","epoch_same_same",NA,4,1,258,NA,"7",0,19,6
"449","4","1","True",NA,"1",FALSE,"digit_span","rest_task","","","1","5",509,"","1639919",FALSE,1375,"rt_main_trials","epoch_same_same",NA,4,1,259,NA,"7",0,19,6
"450","4",NA,"",NA,NA,FALSE,"digit_span","spatial_recall","","false","",NA,2133.5,"[8, 10, 2, 15]","1645718",FALSE,1378,"sr_main_response","",NA,4,1,101,20,"7",0,NA,0
"451","4",NA,"",NA,NA,FALSE,"digit_span","spatial_recall","","false","",NA,1927.19999999995,"[8, 13, 1, 9]","1649807",FALSE,1380,"sr_main_response","",NA,4,1,102,20,"7",0,NA,0
"452","4",NA,"",NA,NA,FALSE,"digit_span","spatial_recall","","false","",NA,2626.90000000014,"[12, 15, 3, 10]","1654595",FALSE,1382,"sr_main_response","",NA,4,1,103,20,"7",0,NA,0
"453","4",NA,"",NA,NA,FALSE,"digit_span","spatial_recall","","false","",NA,1936.19999999995,"[4, 13, 2, 6]","1658703",FALSE,1384,"sr_main_response","",NA,4,1,104,20,"7",0,NA,0
"454","4",NA,"",NA,NA,FALSE,"digit_span","spatial_recall","","false","",NA,2310.79999999981,"[5, 9, 4, 2]","1663175",FALSE,1386,"sr_main_response","",NA,4,1,105,20,"7",0,NA,0
"455","4",NA,"",NA,NA,FALSE,"digit_span","spatial_recall","","false","",NA,2047.19999999995,"[9, 8, 7, 12]","1667389",FALSE,1388,"sr_main_response","",NA,4,1,106,20,"7",0,NA,0
"456","4",NA,"",NA,NA,FALSE,"digit_span","spatial_recall","","false","",NA,1948.69999999995,"[5, 0, 6, 9]","1671501",FALSE,1390,"sr_main_response","",NA,4,1,107,20,"7",0,NA,0
"457","4",NA,"",NA,NA,FALSE,"digit_span","spatial_recall","","false","",NA,2501.5,"[12, 8, 6, 10]","1676172",FALSE,1392,"sr_main_response","",NA,4,1,108,20,"7",0,NA,0
"458","4",NA,"",NA,NA,FALSE,"digit_span","spatial_recall","","false","",NA,2258.30000000005,"[14, 13, 12, 6]","1680606",FALSE,1394,"sr_main_response","",NA,4,1,109,20,"7",0,NA,0
"459","4",NA,"",NA,NA,FALSE,"digit_span","spatial_recall","","false","",NA,2184,"[5, 11, 3, 7]","1684960",FALSE,1396,"sr_main_response","",NA,4,1,110,20,"7",0,NA,0
"460","4","2","False",NA,"2",FALSE,"digit_span","rest_task","","","2","0",722,"","1689523",FALSE,1398,"rt_main_trials","epoch_same_same",NA,4,1,260,NA,"7",0,20,8
"461","4","1","False",NA,"2",FALSE,"digit_span","rest_task","","","1","1",575,"","1691063",FALSE,1399,"rt_main_trials","epoch_same_same",NA,4,1,261,NA,"7",0,20,8
"462","4","2","False",NA,"2",FALSE,"digit_span","rest_task","","","2","2",592,"","1692598",FALSE,1400,"rt_main_trials","epoch_same_same",NA,4,1,262,NA,"7",0,20,8
"463","4","1","False",NA,"2",FALSE,"digit_span","rest_task","","","1","3",454,"","1694146",FALSE,1401,"rt_main_trials","epoch_same_same",NA,4,1,263,NA,"7",0,20,8
"464","4","1","False",NA,"2",FALSE,"digit_span","rest_task","","","1","4",402,"","1695692",FALSE,1402,"rt_main_trials","epoch_same_same",NA,4,1,264,NA,"7",0,20,8
"465","4","1","False",NA,"2",FALSE,"digit_span","rest_task","","","1","5",465,"","1697244",FALSE,1403,"rt_main_trials","epoch_same_same",NA,4,1,265,NA,"7",0,20,8
"466","4","2","False",NA,"2",FALSE,"digit_span","rest_task","","","2","6",654,"","1698785",FALSE,1404,"rt_main_trials","epoch_same_same",NA,4,1,266,NA,"7",0,20,8
"467","4","2","True",NA,"2",FALSE,"digit_span","rest_task","","","2","7",754,"","1699976",FALSE,1405,"rt_main_trials","epoch_same_same",NA,4,1,267,NA,"7",0,20,8
"468","4",NA,"",NA,NA,FALSE,"digit_span","spatial_recall","","false","",NA,2245.09999999986,"[13, 9, 2, 11]","1705883",FALSE,1408,"sr_main_response","",NA,4,1,111,21,"7",0,NA,0
"469","4",NA,"",NA,NA,FALSE,"digit_span","spatial_recall","","false","",NA,2578,"[13, 7, 8, 10]","1710625",FALSE,1410,"sr_main_response","",NA,4,1,112,21,"7",0,NA,0
"470","4",NA,"",NA,NA,FALSE,"digit_span","spatial_recall","","false","",NA,2119,"[12, 5, 11, 14]","1714905",FALSE,1412,"sr_main_response","",NA,4,1,113,21,"7",0,NA,0
"471","4",NA,"",NA,NA,FALSE,"digit_span","spatial_recall","","false","",NA,2036.80000000005,"[2, 13, 15, 10]","1719105",FALSE,1414,"sr_main_response","",NA,4,1,114,21,"7",0,NA,0
"472","4",NA,"",NA,NA,FALSE,"digit_span","spatial_recall","","false","",NA,3127.5,"[15, 5, 13, 9]","1724394",FALSE,1416,"sr_main_response","",NA,4,1,115,21,"7",0,NA,0
"473","4",NA,"",NA,NA,FALSE,"digit_span","spatial_recall","","false","",NA,1971.30000000005,"[3, 2, 9, 7]","1728528",FALSE,1418,"sr_main_response","",NA,4,1,116,21,"7",0,NA,0
"474","4",NA,"",NA,NA,FALSE,"digit_span","spatial_recall","","false","",NA,1922.19999999995,"[7, 6, 1, 15]","1732611",FALSE,1420,"sr_main_response","",NA,4,1,117,21,"7",0,NA,0
"475","4",NA,"",NA,NA,FALSE,"digit_span","spatial_recall","","false","",NA,NA,"[12, 2, 7, 4]","1738989",TRUE,1422,"sr_main_response","",NA,4,0,118,21,"7",0,NA,0
"476","4",NA,"",NA,NA,FALSE,"digit_span","spatial_recall","","false","",NA,2444,"[10, 8, 6, 7]","1743595",FALSE,1424,"sr_main_response","",NA,4,1,119,21,"7",0,NA,0
"477","4",NA,"",NA,NA,FALSE,"digit_span","spatial_recall","","false","",NA,2253.69999999995,"[15, 13, 12, 2]","1748010",FALSE,1426,"sr_main_response","",NA,4,1,120,21,"7",0,NA,0
"478","4","2","False","7","3",FALSE,"digit_span","rest_task","","","2","0",1297,"","1752549",FALSE,1428,"rt_main_trials","block_B_A",NA,4,1,268,NA,"7",0,21,6
"479","4","2","False","7","3",FALSE,"digit_span","rest_task","","","2","1",854,"","1754103",FALSE,1429,"rt_main_trials","block_B_A",NA,4,1,269,NA,"7",0,21,6
"480","4","1","False","7","3",FALSE,"digit_span","rest_task","","","1","2",446,"","1755656",FALSE,1430,"rt_main_trials","block_B_A",NA,4,1,270,NA,"7",0,21,6
"481","4","1","False","7","3",FALSE,"digit_span","rest_task","","","1","3",261,"","1757190",FALSE,1431,"rt_main_trials","block_B_A",NA,4,1,271,NA,"7",0,21,6
"482","4","1","False","7","3",FALSE,"digit_span","rest_task","","","1","4",283,"","1758737",FALSE,1432,"rt_main_trials","block_B_A",NA,4,1,272,NA,"7",0,21,6
"483","4","1","True","7","3",FALSE,"digit_span","rest_task","","","1","5",259,"","1759479",FALSE,1433,"rt_main_trials","block_B_A",NA,4,1,273,NA,"7",0,21,6
"484","4",NA,"",NA,NA,FALSE,"digit_span","digit_span","","False","[2, 7, 7, 3]",NA,3049.19999999995,"[2, 7, 7, 3]","1765976",FALSE,1443,"ds_main_response","",NA,4,1,91,22,"8",0,NA,0
"485","4",NA,"",NA,NA,FALSE,"digit_span","digit_span","","False","[0, 4, 8, 6]",NA,2061.19999999995,"[0, 4, 8, 6]","1769983",FALSE,1452,"ds_main_response","",NA,4,1,92,22,"8",0,NA,0
"486","4",NA,"",NA,NA,FALSE,"digit_span","digit_span","","False","[3, 3, 4, 0]",NA,2421.10000000009,"[3, 3, 4, 0]","1774345",FALSE,1461,"ds_main_response","",NA,4,1,93,22,"8",0,NA,0
"487","4",NA,"",NA,NA,FALSE,"digit_span","digit_span","","False","[2, 5, 8, 9]",NA,2059.30000000005,"[2, 5, 8, 9]","1778366",FALSE,1470,"ds_main_response","",NA,4,1,94,22,"8",0,NA,0
"488","4",NA,"",NA,NA,FALSE,"digit_span","digit_span","","False","[4, 5, 5, 2]",NA,1981.09999999986,"[4, 5, 5, 2]","1782290",FALSE,1479,"ds_main_response","",NA,4,1,95,22,"8",0,NA,0
"489","4",NA,"",NA,NA,FALSE,"digit_span","digit_span","","False","[8, 3, 2, 3]",NA,2215.20000000019,"[8, 3, 2, 3]","1786441",FALSE,1488,"ds_main_response","",NA,4,1,96,22,"8",0,NA,0
"490","4",NA,"",NA,NA,FALSE,"digit_span","digit_span","","False","[3, 3, 2, 5]",NA,1641.39999999991,"[3, 3, 2, 5]","1790022",FALSE,1497,"ds_main_response","",NA,4,1,97,22,"8",0,NA,0
"491","4",NA,"",NA,NA,FALSE,"digit_span","digit_span","","False","[0, 0, 9, 8]",NA,1725,"[0, 0, 9, 8]","1793705",FALSE,1506,"ds_main_response","",NA,4,1,98,22,"8",0,NA,0
"492","4",NA,"",NA,NA,FALSE,"digit_span","digit_span","","False","[1, 9, 5, 5]",NA,2502.89999999991,"[1, 9, 5, 5]","1798151",FALSE,1515,"ds_main_response","",NA,4,1,99,22,"8",0,NA,0
"493","4",NA,"",NA,NA,FALSE,"digit_span","digit_span","","False","[0, 7, 8, 8]",NA,1651,"[0, 7, 8, 8]","1801739",FALSE,1524,"ds_main_response","",NA,4,1,100,22,"8",0,NA,0
"494","4","2","False",NA,"1",FALSE,"digit_span","rest_task","","","2","0",734,"","1806298",FALSE,1526,"rt_main_trials","epoch_same_same",NA,4,1,274,NA,"8",0,22,7
"495","4","2","False",NA,"1",FALSE,"digit_span","rest_task","","","2","1",356,"","1807837",FALSE,1527,"rt_main_trials","epoch_same_same",NA,4,1,275,NA,"8",0,22,7
"496","4","2","False",NA,"1",FALSE,"digit_span","rest_task","","","2","2",588,"","1809382",FALSE,1528,"rt_main_trials","epoch_same_same",NA,4,1,276,NA,"8",0,22,7
"497","4","2","False",NA,"1",FALSE,"digit_span","rest_task","","","2","3",303,"","1810919",FALSE,1529,"rt_main_trials","epoch_same_same",NA,4,1,277,NA,"8",0,22,7
"498","4","1","False",NA,"1",FALSE,"digit_span","rest_task","","","1","4",387,"","1812470",FALSE,1530,"rt_main_trials","epoch_same_same",NA,4,1,278,NA,"8",0,22,7
"499","4","2","False",NA,"1",FALSE,"digit_span","rest_task","","","1","5",255,"","1814007",FALSE,1531,"rt_main_trials","epoch_same_same",NA,4,1,279,NA,"8",0,22,7
"500","4","1","True",NA,"1",FALSE,"digit_span","rest_task","","","1","6",412,"","1815172",FALSE,1532,"rt_main_trials","epoch_same_same",NA,4,1,280,NA,"8",0,22,7
"501","4",NA,"",NA,NA,FALSE,"digit_span","digit_span","","False","[6, 2, 8, 6]",NA,2473.29999999981,"[6, 2, 8, 6]","1821098",FALSE,1542,"ds_main_response","",NA,4,1,101,23,"8",0,NA,0
"502","4",NA,"",NA,NA,FALSE,"digit_span","digit_span","","False","[4, 1, 2, 9]",NA,1940.39999999991,"[4, 1, 2, 9]","1824973",FALSE,1551,"ds_main_response","",NA,4,1,102,23,"8",0,NA,0
"503","4",NA,"",NA,NA,FALSE,"digit_span","digit_span","","False","[3, 3, 4, 8]",NA,1945.90000000014,"[3, 3, 4, 8]","1828873",FALSE,1560,"ds_main_response","",NA,4,1,103,23,"8",0,NA,0
"504","4",NA,"",NA,NA,FALSE,"digit_span","digit_span","","False","[2, 6, 7, 7]",NA,2098.09999999986,"[2, 6, 7, 7]","1832911",FALSE,1569,"ds_main_response","",NA,4,1,104,23,"8",0,NA,0
"505","4",NA,"",NA,NA,FALSE,"digit_span","digit_span","","False","[6, 8, 9, 7]",NA,2800.19999999995,"[6, 8, 9, 7]","1837640",FALSE,1578,"ds_main_response","",NA,4,1,105,23,"8",0,NA,0
"506","4",NA,"",NA,NA,FALSE,"digit_span","digit_span","","False","[0, 6, 5, 8]",NA,2907.19999999995,"[0, 6, 5, 8]","1842477",FALSE,1587,"ds_main_response","",NA,4,1,106,23,"8",0,NA,0
"507","4",NA,"",NA,NA,FALSE,"digit_span","digit_span","","False","[]",NA,NA,"[3, 4, 6, 7]","1848613",TRUE,1596,"ds_main_response","",NA,4,0,107,23,"8",0,NA,0
"508","4",NA,"",NA,NA,FALSE,"digit_span","digit_span","","False","[4, 9, 1, 9]",NA,2807.10000000009,"[4, 9, 1, 9]","1853370",FALSE,1605,"ds_main_response","",NA,4,1,108,23,"8",0,NA,0
"509","4",NA,"",NA,NA,FALSE,"digit_span","digit_span","","False","[9, 7, 5, 9]",NA,2153.40000000014,"[9, 7, 5, 9]","1857468",FALSE,1614,"ds_main_response","",NA,4,1,109,23,"8",0,NA,0
"510","4",NA,"",NA,NA,FALSE,"digit_span","digit_span","","False","[2, 6, 0, 9]",NA,2503.80000000005,"[2, 6, 0, 9]","1861916",FALSE,1623,"ds_main_response","",NA,4,1,110,23,"8",0,NA,0
"511","4","2","False",NA,"2",FALSE,"digit_span","rest_task","","","2","0",1299,"","1866464",FALSE,1625,"rt_main_trials","epoch_same_same",NA,4,1,281,NA,"8",0,23,10
"512","4","2","False",NA,"2",FALSE,"digit_span","rest_task","","","2","1",789,"","1868012",FALSE,1626,"rt_main_trials","epoch_same_same",NA,4,1,282,NA,"8",0,23,10
"513","4","2","False",NA,"2",FALSE,"digit_span","rest_task","","","2","2",419,"","1869550",FALSE,1627,"rt_main_trials","epoch_same_same",NA,4,1,283,NA,"8",0,23,10
"514","4","1","False",NA,"2",FALSE,"digit_span","rest_task","","","1","3",472,"","1871088",FALSE,1628,"rt_main_trials","epoch_same_same",NA,4,1,284,NA,"8",0,23,10
"515","4","1","False",NA,"2",FALSE,"digit_span","rest_task","","","1","4",367,"","1872640",FALSE,1629,"rt_main_trials","epoch_same_same",NA,4,1,285,NA,"8",0,23,10
"516","4","2","False",NA,"2",FALSE,"digit_span","rest_task","","","2","5",441,"","1874188",FALSE,1630,"rt_main_trials","epoch_same_same",NA,4,1,286,NA,"8",0,23,10
"517","4","1","False",NA,"2",FALSE,"digit_span","rest_task","","","1","6",390,"","1875738",FALSE,1631,"rt_main_trials","epoch_same_same",NA,4,1,287,NA,"8",0,23,10
"518","4","1","False",NA,"2",FALSE,"digit_span","rest_task","","","1","7",445,"","1877290",FALSE,1632,"rt_main_trials","epoch_same_same",NA,4,1,288,NA,"8",0,23,10
"519","4","1","False",NA,"2",FALSE,"digit_span","rest_task","","","1","8",303,"","1878831",FALSE,1633,"rt_main_trials","epoch_same_same",NA,4,1,289,NA,"8",0,23,10
"520","4","1","True",NA,"2",FALSE,"digit_span","rest_task","","","","9",NA,"","1879112",TRUE,1634,"rt_main_trials","epoch_same_same",NA,4,0,290,NA,"8",0,23,10
"521","4",NA,"",NA,NA,FALSE,"digit_span","digit_span","","False","[6, 6, 1, 1]",NA,2172.69999999995,"[6, 6, 1, 1]","1884720",FALSE,1644,"ds_main_response","",NA,4,1,111,24,"8",0,NA,0
"522","4",NA,"",NA,NA,FALSE,"digit_span","digit_span","","False","[4, 1, 9, 4]",NA,2141.69999999995,"[4, 1, 9, 4]","1888795",FALSE,1653,"ds_main_response","",NA,4,1,112,24,"8",0,NA,0
"523","4",NA,"",NA,NA,FALSE,"digit_span","digit_span","","False","[8, 4, 0, 7]",NA,2453.5,"[8, 4, 0, 7]","1893191",FALSE,1662,"ds_main_response","",NA,4,1,113,24,"8",0,NA,0
"524","4",NA,"",NA,NA,FALSE,"digit_span","digit_span","","False","[0, 3, 4, 4]",NA,2141.30000000005,"[0, 3, 4, 4]","1897274",FALSE,1671,"ds_main_response","",NA,4,1,114,24,"8",0,NA,0
"525","4",NA,"",NA,NA,FALSE,"digit_span","digit_span","","False","[3, 3, 6, 5]",NA,3566.60000000009,"[3, 3, 6, 5]","1902799",FALSE,1680,"ds_main_response","",NA,4,1,115,24,"8",0,NA,0
"526","4",NA,"",NA,NA,FALSE,"digit_span","digit_span","","False","[7, 8, 8, 7]",NA,1831.40000000014,"[7, 8, 8, 7]","1906584",FALSE,1689,"ds_main_response","",NA,4,1,116,24,"8",0,NA,0
"527","4",NA,"",NA,NA,FALSE,"digit_span","digit_span","","False","[2, 9, 2, 8]",NA,2232.39999999991,"[2, 9, 2, 8]","1910768",FALSE,1698,"ds_main_response","",NA,4,1,117,24,"8",0,NA,0
"528","4",NA,"",NA,NA,FALSE,"digit_span","digit_span","","False","[6, 7, 3, 2]",NA,2578,"[6, 7, 3, 2]","1915290",FALSE,1707,"ds_main_response","",NA,4,1,118,24,"8",0,NA,0
"529","4",NA,"",NA,NA,FALSE,"digit_span","digit_span","","False","[7, 4, 3, 4]",NA,2701.39999999991,"[7, 4, 3, 4]","1919915",FALSE,1716,"ds_main_response","",NA,4,1,119,24,"8",0,NA,0
"530","4",NA,"",NA,NA,FALSE,"digit_span","digit_span","","False","[4, 0, 3, 3]",NA,4048,"[4, 0, 3, 3]","1925900",FALSE,1725,"ds_main_response","",NA,4,1,120,24,"8",0,NA,0
"531","4","1","False","8","3",FALSE,"digit_span","rest_task","","","1","0",NA,"","1930449",TRUE,1727,"rt_main_trials","block_A_A",NA,4,0,291,NA,"8",0,24,5
"532","4","2","False","8","3",FALSE,"digit_span","rest_task","","","2","1",1021,"","1931995",FALSE,1728,"rt_main_trials","block_A_A",NA,4,1,292,NA,"8",0,24,5
"533","4","1","False","8","3",FALSE,"digit_span","rest_task","","","1","2",1113,"","1933545",FALSE,1729,"rt_main_trials","block_A_A",NA,4,1,293,NA,"8",0,24,5
"534","4","1","False","8","3",FALSE,"digit_span","rest_task","","","1","3",813,"","1935094",FALSE,1730,"rt_main_trials","block_A_A",NA,4,1,294,NA,"8",0,24,5
"535","4","2","True","8","3",FALSE,"digit_span","rest_task","","","2","4",571,"","1936231",FALSE,1731,"rt_main_trials","block_A_A",NA,4,1,295,NA,"8",0,24,5
"536","4",NA,"",NA,NA,FALSE,"digit_span","digit_span","","False","[2, 7, 7, 3]",NA,2145.60000000009,"[2, 7, 7, 3]","1941825",FALSE,1741,"ds_main_response","",NA,4,1,121,25,"9",0,NA,0
"537","4",NA,"",NA,NA,FALSE,"digit_span","digit_span","","False","[0, 4, 8, 6]",NA,2586.69999999972,"[0, 4, 8, 6]","1946346",FALSE,1750,"ds_main_response","",NA,4,1,122,25,"9",0,NA,0
"538","4",NA,"",NA,NA,FALSE,"digit_span","digit_span","","False","[3, 3, 4, 0]",NA,1441.39999999991,"[3, 3, 4, 0]","1949742",FALSE,1759,"ds_main_response","",NA,4,1,123,25,"9",0,NA,0
"539","4",NA,"",NA,NA,FALSE,"digit_span","digit_span","","False","[2, 5, 8, 9]",NA,1796.90000000037,"[2, 5, 8, 9]","1953480",FALSE,1768,"ds_main_response","",NA,4,1,124,25,"9",0,NA,0
"540","4",NA,"",NA,NA,FALSE,"digit_span","digit_span","","False","[4, 5, 5, 2]",NA,1928.80000000028,"[4, 5, 5, 2]","1957334",FALSE,1777,"ds_main_response","",NA,4,1,125,25,"9",0,NA,0
"541","4",NA,"",NA,NA,FALSE,"digit_span","digit_span","","False","[]",NA,NA,"[8, 3, 2, 3]","1963505",TRUE,1786,"ds_main_response","",NA,4,0,126,25,"9",0,NA,0
"542","4",NA,"",NA,NA,FALSE,"digit_span","digit_span","","False","[3, 3, 2, 5]",NA,1904.19999999972,"[3, 3, 2, 5]","1967343",FALSE,1795,"ds_main_response","",NA,4,1,127,25,"9",0,NA,0
"543","4",NA,"",NA,NA,FALSE,"digit_span","digit_span","","False","[0, 0, 9, 8]",NA,1676.89999999991,"[0, 0, 9, 8]","1970974",FALSE,1804,"ds_main_response","",NA,4,1,128,25,"9",0,NA,0
"544","4",NA,"",NA,NA,FALSE,"digit_span","digit_span","","False","[1, 9, 5, 5]",NA,2429.89999999991,"[1, 9, 5, 5]","1975364",FALSE,1813,"ds_main_response","",NA,4,1,129,25,"9",0,NA,0
"545","4",NA,"",NA,NA,FALSE,"digit_span","digit_span","","False","[0, 7, 8, 8]",NA,1920.70000000019,"[0, 7, 8, 8]","1979246",FALSE,1822,"ds_main_response","",NA,4,1,130,25,"9",0,NA,0
"546","4","2","False",NA,"1",FALSE,"digit_span","rest_task","","","2","0",1184,"","1983806",FALSE,1824,"rt_main_trials","epoch_same_same",NA,4,1,296,NA,"9",0,25,5
"547","4","2","False",NA,"1",FALSE,"digit_span","rest_task","","","2","1",534,"","1985351",FALSE,1825,"rt_main_trials","epoch_same_same",NA,4,1,297,NA,"9",0,25,5
"548","4","2","False",NA,"1",FALSE,"digit_span","rest_task","","","2","2",422,"","1986889",FALSE,1826,"rt_main_trials","epoch_same_same",NA,4,1,298,NA,"9",0,25,5
"549","4","2","False",NA,"1",FALSE,"digit_span","rest_task","","","2","3",450,"","1988429",FALSE,1827,"rt_main_trials","epoch_same_same",NA,4,1,299,NA,"9",0,25,5
"550","4","1","True",NA,"1",FALSE,"digit_span","rest_task","","","1","4",409,"","1989688",FALSE,1828,"rt_main_trials","epoch_same_same",NA,4,1,300,NA,"9",0,25,5
"551","4",NA,"",NA,NA,FALSE,"digit_span","digit_span","","False","[6, 2, 8, 6]",NA,2635.60000000009,"[6, 2, 8, 6]","1995744",FALSE,1838,"ds_main_response","",NA,4,1,131,26,"9",0,NA,0
"552","4",NA,"",NA,NA,FALSE,"digit_span","digit_span","","False","[4, 4, 1, 2]",NA,2312.20000000019,"[4, 1, 2, 9]","2000011",FALSE,1847,"ds_main_response","",NA,4,1,132,26,"9",0,NA,0
"553","4",NA,"",NA,NA,FALSE,"digit_span","digit_span","","False","[3, 3, 1, 8]",NA,2099,"[3, 3, 4, 8]","2004049",FALSE,1856,"ds_main_response","",NA,4,1,133,26,"9",0,NA,0
"554","4",NA,"",NA,NA,FALSE,"digit_span","digit_span","","False","[2, 6, 7, 7]",NA,2117.60000000009,"[2, 6, 7, 7]","2008093",FALSE,1865,"ds_main_response","",NA,4,1,134,26,"9",0,NA,0
"555","4",NA,"",NA,NA,FALSE,"digit_span","digit_span","","False","[6, 8, 9, 7]",NA,2863.10000000009,"[6, 8, 9, 7]","2012918",FALSE,1874,"ds_main_response","",NA,4,1,135,26,"9",0,NA,0
"556","4",NA,"",NA,NA,FALSE,"digit_span","digit_span","","False","[0, 6, 5, 8]",NA,2700.5,"[0, 6, 5, 8]","2017571",FALSE,1883,"ds_main_response","",NA,4,1,136,26,"9",0,NA,0
"557","4",NA,"",NA,NA,FALSE,"digit_span","digit_span","","False","[3, 4, 6, 7]",NA,2369.59999999963,"[3, 4, 6, 7]","2021872",FALSE,1892,"ds_main_response","",NA,4,1,137,26,"9",0,NA,0
"558","4",NA,"",NA,NA,FALSE,"digit_span","digit_span","","False","[4, 9, 1, 9]",NA,2533,"[4, 9, 1, 9]","2026369",FALSE,1901,"ds_main_response","",NA,4,1,138,26,"9",0,NA,0
"559","4",NA,"",NA,NA,FALSE,"digit_span","digit_span","","False","[9, 7, 5, 9]",NA,2607.39999999991,"[9, 7, 5, 9]","2030931",FALSE,1910,"ds_main_response","",NA,4,1,139,26,"9",0,NA,0
"560","4",NA,"",NA,NA,FALSE,"digit_span","digit_span","","False","[2, 6, 0, 9]",NA,2028.29999999981,"[2, 6, 0, 9]","2034899",FALSE,1919,"ds_main_response","",NA,4,1,140,26,"9",0,NA,0
"561","4","2","False",NA,"2",FALSE,"digit_span","rest_task","","","2","0",567,"","2039453",FALSE,1921,"rt_main_trials","epoch_same_same",NA,4,1,301,NA,"9",0,26,9
"562","4","2","False",NA,"2",FALSE,"digit_span","rest_task","","","2","1",335,"","2040995",FALSE,1922,"rt_main_trials","epoch_same_same",NA,4,1,302,NA,"9",0,26,9
"563","4","2","False",NA,"2",FALSE,"digit_span","rest_task","","","2","2",393,"","2042543",FALSE,1923,"rt_main_trials","epoch_same_same",NA,4,1,303,NA,"9",0,26,9
"564","4","1","False",NA,"2",FALSE,"digit_span","rest_task","","","1","3",531,"","2044091",FALSE,1924,"rt_main_trials","epoch_same_same",NA,4,1,304,NA,"9",0,26,9
"565","4","1","False",NA,"2",FALSE,"digit_span","rest_task","","","1","4",420,"","2045641",FALSE,1925,"rt_main_trials","epoch_same_same",NA,4,1,305,NA,"9",0,26,9
"566","4","2","False",NA,"2",FALSE,"digit_span","rest_task","","","2","5",475,"","2047185",FALSE,1926,"rt_main_trials","epoch_same_same",NA,4,1,306,NA,"9",0,26,9
"567","4","1","False",NA,"2",FALSE,"digit_span","rest_task","","","1","6",564,"","2048738",FALSE,1927,"rt_main_trials","epoch_same_same",NA,4,1,307,NA,"9",0,26,9
"568","4","1","False",NA,"2",FALSE,"digit_span","rest_task","","","1","7",450,"","2050265",FALSE,1928,"rt_main_trials","epoch_same_same",NA,4,1,308,NA,"9",0,26,9
"569","4","1","True",NA,"2",FALSE,"digit_span","rest_task","","","1","8",562,"","2051187",FALSE,1929,"rt_main_trials","epoch_same_same",NA,4,1,309,NA,"9",0,26,9
"570","4",NA,"",NA,NA,FALSE,"digit_span","digit_span","","False","[6, 6, 1, 1]",NA,1737.29999999981,"[6, 6, 1, 1]","2056370",FALSE,1939,"ds_main_response","",NA,4,1,141,27,"9",0,NA,0
"571","4",NA,"",NA,NA,FALSE,"digit_span","digit_span","","False","[4, 1, 9, 4]",NA,2496.60000000009,"[4, 1, 9, 4]","2060814",FALSE,1948,"ds_main_response","",NA,4,1,142,27,"9",0,NA,0
"572","4",NA,"",NA,NA,FALSE,"digit_span","digit_span","","False","[8, 4, 0, 7]",NA,2402.79999999981,"[8, 4, 0, 7]","2065161",FALSE,1957,"ds_main_response","",NA,4,1,143,27,"9",0,NA,0
"573","4",NA,"",NA,NA,FALSE,"digit_span","digit_span","","False","[0, 3, 4, 4]",NA,2228.30000000028,"[0, 3, 4, 4]","2069319",FALSE,1966,"ds_main_response","",NA,4,1,144,27,"9",0,NA,0
"574","4",NA,"",NA,NA,FALSE,"digit_span","digit_span","","False","[3, 3, 6, 5]",NA,1824.10000000009,"[3, 3, 6, 5]","2073076",FALSE,1975,"ds_main_response","",NA,4,1,145,27,"9",0,NA,0
"575","4",NA,"",NA,NA,FALSE,"digit_span","digit_span","","False","[7, 8, 8, 7]",NA,1767,"[7, 8, 8, 7]","2076776",FALSE,1984,"ds_main_response","",NA,4,1,146,27,"9",0,NA,0
"576","4",NA,"",NA,NA,FALSE,"digit_span","digit_span","","False","[2, 9, 2, 8]",NA,2290.30000000028,"[2, 9, 2, 8]","2080994",FALSE,1993,"ds_main_response","",NA,4,1,147,27,"9",0,NA,0
"577","4",NA,"",NA,NA,FALSE,"digit_span","digit_span","","False","[6, 7, 3, 2]",NA,2442.80000000028,"[6, 7, 3, 2]","2085377",FALSE,2002,"ds_main_response","",NA,4,1,148,27,"9",0,NA,0
"578","4",NA,"",NA,NA,FALSE,"digit_span","digit_span","","False","[7, 4, 3, 4]",NA,3034.69999999972,"[7, 4, 3, 4]","2090362",FALSE,2011,"ds_main_response","",NA,4,1,149,27,"9",0,NA,0
"579","4",NA,"",NA,NA,FALSE,"digit_span","digit_span","","False","[4, 0, 3, 3]",NA,2122.09999999986,"[4, 0, 3, 3]","2094446",FALSE,2020,"ds_main_response","",NA,4,1,150,27,"9",0,NA,0
"580","4","2","False","9","6",FALSE,"digit_span","rest_task","","","2","0",648,"","2098992",FALSE,2022,"rt_main_trials","block_A_B",NA,4,1,310,NA,"9",0,27,6
"581","4","1","False","9","6",FALSE,"digit_span","rest_task","","","1","1",617,"","2100546",FALSE,2023,"rt_main_trials","block_A_B",NA,4,1,311,NA,"9",0,27,6
"582","4","2","False","9","6",FALSE,"digit_span","rest_task","","","2","2",559,"","2102081",FALSE,2024,"rt_main_trials","block_A_B",NA,4,1,312,NA,"9",0,27,6
"583","4","1","False","9","6",FALSE,"digit_span","rest_task","","","1","3",750,"","2103611",FALSE,2025,"rt_main_trials","block_A_B",NA,4,1,313,NA,"9",0,27,6
"584","4","2","False","9","6",FALSE,"digit_span","rest_task","","","2","4",851,"","2105161",FALSE,2026,"rt_main_trials","block_A_B",NA,4,1,314,NA,"9",0,27,6
"585","4","2","True","9","6",FALSE,"digit_span","rest_task","","","","5",NA,"","2105905",TRUE,2027,"rt_main_trials","block_A_B",NA,4,0,315,NA,"9",0,27,6
"586","4",NA,"",NA,NA,FALSE,"digit_span","spatial_recall","","false","",NA,2558.10000000009,"[13, 3, 0, 9]","2112133",FALSE,2030,"sr_main_response","",NA,4,1,121,28,"10",0,NA,0
"587","4",NA,"",NA,NA,FALSE,"digit_span","spatial_recall","","false","",NA,1839.10000000009,"[7, 6, 13, 14]","2116134",FALSE,2032,"sr_main_response","",NA,4,1,122,28,"10",0,NA,0
"588","4",NA,"",NA,NA,FALSE,"digit_span","spatial_recall","","false","",NA,2506.29999999981,"[2, 15, 3, 12]","2120802",FALSE,2034,"sr_main_response","",NA,4,1,123,28,"10",0,NA,0
"589","4",NA,"",NA,NA,FALSE,"digit_span","spatial_recall","","false","",NA,1851.10000000009,"[11, 6, 12, 4]","2124816",FALSE,2036,"sr_main_response","",NA,4,1,124,28,"10",0,NA,0
"590","4",NA,"",NA,NA,FALSE,"digit_span","spatial_recall","","false","",NA,1663.79999999981,"[9, 11, 15, 10]","2128641",FALSE,2038,"sr_main_response","",NA,4,1,125,28,"10",0,NA,0
"591","4",NA,"",NA,NA,FALSE,"digit_span","spatial_recall","","false","",NA,1670.80000000028,"[5, 4, 14, 9]","2132475",FALSE,2040,"sr_main_response","",NA,4,1,126,28,"10",0,NA,0
"592","4",NA,"",NA,NA,FALSE,"digit_span","spatial_recall","","false","",NA,3090.10000000009,"[7, 13, 4, 14]","2137728",FALSE,2042,"sr_main_response","",NA,4,1,127,28,"10",0,NA,0
"593","4",NA,"",NA,NA,FALSE,"digit_span","spatial_recall","","false","",NA,2273.5,"[5, 11, 15, 12]","2142164",FALSE,2044,"sr_main_response","",NA,4,1,128,28,"10",0,NA,0
"594","4",NA,"",NA,NA,FALSE,"digit_span","spatial_recall","","false","",NA,2046.5,"[6, 15, 5, 11]","2146373",FALSE,2046,"sr_main_response","",NA,4,1,129,28,"10",0,NA,0
"595","4",NA,"",NA,NA,FALSE,"digit_span","spatial_recall","","false","",NA,2300.80000000028,"[8, 14, 9, 2]","2150849",FALSE,2048,"sr_main_response","",NA,4,1,130,28,"10",0,NA,0
"596","4","2","False",NA,"1",FALSE,"digit_span","rest_task","","","2","0",571,"","2155402",FALSE,2050,"rt_main_trials","epoch_same_same",NA,4,1,316,NA,"10",0,28,7
"597","4","2","False",NA,"1",FALSE,"digit_span","rest_task","","","2","1",330,"","2156947",FALSE,2051,"rt_main_trials","epoch_same_same",NA,4,1,317,NA,"10",0,28,7
"598","4","1","False",NA,"1",FALSE,"digit_span","rest_task","","","1","2",486,"","2158484",FALSE,2052,"rt_main_trials","epoch_same_same",NA,4,1,318,NA,"10",0,28,7
"599","4","2","False",NA,"1",FALSE,"digit_span","rest_task","","","2","3",877,"","2160033",FALSE,2053,"rt_main_trials","epoch_same_same",NA,4,1,319,NA,"10",0,28,7
